Timestamp, acc x, acc y, acc z, angular vel x, angular vel y, angular vel z
1.5659686797359818e+18,-7.653646591607e-02,8.902809444489e-01,9.993204037540e+00,-5.935136228800e-02,9.263465553522e-02,7.236582040787e-02
1.5659686797398239e+18,-6.506548276203e-02,8.291050223660e-01,9.951731659703e+00,1.623240709305e-01,7.027696818113e-03,-9.254551678896e-02
1.5659686797410322e+18,-7.828662985260e-02,7.912310089827e-01,9.969915207691e+00,-1.150903180242e-01,-6.033237650990e-02,-5.670781433582e-02
1.5659686797439775e+18,-9.574886826688e-02,7.887817567320e-01,9.977068681405e+00,-1.663015186787e-01,-1.321369875222e-02,6.689839065075e-02
1.565968679751536e+18,-8.457202225348e-02,7.450387735154e-01,9.948813687749e+00,2.604556381702e-01,4.895773902535e-02,3.040594421327e-02
1.5659686797524744e+18,-1.204178821910e-01,6.575552913330e-01,9.905290779941e+00,-3.566052913666e-01,-3.392080590129e-02,1.799533888698e-02
1.565968679753884e+18,-1.941110041476e-01,6.720259801248e-01,9.901256356378e+00,3.704829514027e-02,7.695712149143e-02,3.276038542390e-02
1.5659686797559928e+18,-1.505083445773e-01,6.618106670998e-01,9.886722611451e+00,2.695285975933e-01,6.674197316170e-02,-1.138941943645e-02
1.5659686797598062e+18,-2.039308098061e-01,6.626270358059e-01,9.815172676547e+00,-3.376492261887e-01,-1.545456610620e-02,-1.970651559532e-03
1.5659686797611136e+18,-1.381421177491e-01,7.066614801134e-01,9.909914409380e+00,-2.425067126751e-01,-1.210189145058e-02,1.660870574415e-02
1.5659686797639053e+18,-1.734396249529e-01,7.135383982417e-01,9.832959913440e+00,3.614839315414e-01,5.953962355852e-02,-2.743013761938e-02
1.5659686797714893e+18,-1.277323664199e-01,7.555890220231e-01,9.848825216882e+00,1.100867986679e-03,6.903703510761e-02,-6.336856633425e-03
1.5659686797798822e+18,-1.144454597450e-01,8.223542165072e-01,9.880635319798e+00,-3.493335247040e-01,3.612050414085e-02,6.490895897150e-02
1.5659686797810355e+18,-9.346405151011e-02,8.231577986275e-01,9.853957387106e+00,2.319617420435e-01,-8.806493878365e-02,-2.246853895485e-02
1.5659686797839565e+18,-8.898377796503e-02,8.732306532972e-01,9.857919328995e+00,1.426966637373e-01,1.479187607765e-02,-4.680038988590e-02
1.565968679793896e+18,-3.692701143643e-02,8.803750668012e-01,9.857171131058e+00,-7.897479832172e-02,-1.963759213686e-02,4.153822362423e-02
1.5659686797949565e+18,-5.383810233474e-03,8.555208665811e-01,9.824725059896e+00,2.208045125008e-02,1.234351992607e-01,-1.032799668610e-02
1.5659686797962222e+18,2.264826756468e-02,8.795394816832e-01,9.935665278065e+00,-3.522467613220e-02,1.600268632174e-01,1.204325724393e-02
1.5659686797997437e+18,3.801573442085e-02,8.913806638971e-01,9.869027730241e+00,9.138436615467e-02,-1.163451448083e-01,2.775353565812e-02
1.5659686798015939e+18,2.147813056158e-02,9.160239219840e-01,9.915315463238e+00,-4.500448703766e-03,-1.388484388590e-01,1.362788304687e-02
1.5659686798068564e+18,4.032062611738e-02,9.057988180876e-01,9.888756774592e+00,-1.877470612526e-01,1.562895327806e-01,-4.464532062411e-02
1.5659686798116964e+18,2.730769944390e-02,8.706605495438e-01,9.935100622435e+00,-7.241658866405e-02,7.253056764603e-02,-3.064208105206e-02
1.565968679814812e+18,-2.375622522751e-02,8.482577204943e-01,9.863385850172e+00,-1.448987424374e-01,1.846874058247e-01,-5.876144021749e-02
1.5659686798159928e+18,-2.009548963513e-02,8.359910007037e-01,9.869796971245e+00,5.460973829031e-02,4.637182503939e-02,-3.150900080800e-02
1.565968679819775e+18,-8.604556667196e-02,8.284235338740e-01,9.836116373487e+00,9.221344441175e-02,-1.042473018169e-01,7.869652658701e-02
1.5659686798211525e+18,-3.428056263234e-02,8.030155648878e-01,9.855228154540e+00,-7.661102712154e-02,4.166904091835e-02,5.777657032013e-03
1.565968679823996e+18,-6.374066460339e-02,7.710056259020e-01,9.883090344279e+00,-9.817890077829e-02,1.138937622309e-01,-1.028511673212e-01
1.5659686798328676e+18,-1.276123643118e-01,7.243369987795e-01,9.922152121887e+00,-9.457479417324e-02,2.362406998873e-02,-2.626219205558e-02
1.5659686798340567e+18,-1.415932720663e-01,7.256293207435e-01,9.912542454634e+00,-9.172184765339e-02,-4.612935706973e-03,-5.402247235179e-02
1.5659686798361761e+18,-1.616536807898e-01,7.214603092308e-01,9.911143090680e+00,8.374840766191e-02,8.625508844852e-02,3.341388702393e-02
1.565968679841296e+18,-1.649639817308e-01,7.240334817648e-01,9.973443428588e+00,8.518897742033e-02,6.994847953320e-02,3.459230065346e-04
1.5659686798448248e+18,-1.557965476818e-01,7.225335787129e-01,9.959611119227e+00,-1.852773725986e-01,-1.312527805567e-02,1.823479123414e-02
1.5659686798528758e+18,-5.270282704460e-02,7.295002952069e-01,9.939769845185e+00,-1.207876577973e-01,-1.133890450001e-01,-1.303321123123e-02
1.5659686798539154e+18,-9.731052139506e-02,7.469703517051e-01,9.885588623953e+00,-1.344038099051e-01,1.880316436291e-02,7.129488140345e-02
1.565968679856364e+18,-4.119601405038e-02,8.173213432553e-01,9.966648856072e+00,9.771188348532e-02,1.645827889442e-01,-5.371916294098e-02
1.5659686798662815e+18,-6.050274487156e-02,8.933199871045e-01,9.901976496892e+00,-7.108265161514e-02,2.803708612919e-02,7.084842026234e-02
1.5659686798715034e+18,-4.171093899533e-02,9.104784893055e-01,9.997264180408e+00,-6.637861952186e-03,2.037597149611e-01,-9.308779239655e-02
1.565968679872866e+18,-6.270250343269e-02,9.233026311724e-01,9.981410567558e+00,-2.320873178542e-02,-1.117441058159e-01,8.927882462740e-02
1.5659686798739464e+18,-1.180419153437e-01,9.493201184389e-01,9.944515056789e+00,5.517476797104e-02,2.908098325133e-02,-1.315464824438e-02
1.5659686798760748e+18,-8.188017193640e-02,9.114053341132e-01,9.977497726159e+00,7.091350853443e-02,1.372554451227e-01,-1.003980487585e-01
1.5659686798798738e+18,-1.181438974991e-01,9.050390756902e-01,9.910106135101e+00,1.301442086697e-02,2.699642255902e-02,2.814116701484e-02
1.5659686798810112e+18,-8.757307048267e-02,8.690803467329e-01,9.925266495800e+00,5.660495534539e-02,-1.655061542988e-01,6.738526374102e-02
1.565968679888042e+18,-9.863073638279e-02,8.684880720769e-01,9.962710295370e+00,4.375356808305e-02,-2.128482609987e-02,-5.471164733171e-02
1.5659686798914442e+18,-1.343797196660e-01,8.639869746634e-01,9.943098156946e+00,-1.923179626465e-01,1.938866078854e-01,-4.240082576871e-02
1.5659686798957934e+18,-2.084633622207e-01,8.719888200806e-01,9.945636184635e+00,5.828037112951e-02,1.738449186087e-02,-6.827869266272e-02
1.5659686798960346e+18,-2.296651655290e-01,8.809648572062e-01,9.972243973770e+00,-1.898075193167e-01,2.763586640358e-01,4.991809278727e-02
1.565968679899875e+18,-2.311057022895e-01,8.981492248437e-01,9.944755883000e+00,-7.602885365486e-03,-3.563424944878e-02,4.038612172008e-02
1.5659686799011471e+18,-2.500273285451e-01,8.949465138893e-01,1.002777078223e+01,2.093415558338e-01,-2.382549643517e-01,-7.946033775806e-02
1.565968679908537e+18,-2.812665652028e-01,8.954759516092e-01,9.981767130637e+00,-2.547951042652e-02,1.168077513576e-01,-9.253755211830e-03
1.5659686799127936e+18,-2.106319306456e-01,8.396259713256e-01,9.964696527081e+00,1.885367333889e-01,-1.102243512869e-01,-8.628708124161e-02
1.565968679915566e+18,-2.083882866953e-01,8.356190206552e-01,9.920087563205e+00,6.861305981874e-02,2.188651412725e-01,6.004841998219e-02
1.5659686799198034e+18,-1.530427280897e-01,8.462305717087e-01,9.844133782005e+00,9.875302761793e-02,-9.023410826921e-02,-4.706675186753e-02
1.565968679921001e+18,-1.063360517411e-01,8.552143538520e-01,9.876701435332e+00,1.068667769432e-01,1.340360939503e-02,-2.512322925031e-02
1.5659686799239478e+18,-8.171151686920e-02,8.263466270030e-01,9.807859041712e+00,-7.186348736286e-02,8.807399868965e-02,2.766624093056e-02
1.565968679931489e+18,-3.076556671869e-02,8.660449573874e-01,9.822576328945e+00,-2.329345047474e-02,-9.000241011381e-02,-3.478637896478e-03
1.565968679933949e+18,-3.852969123859e-02,8.477078242370e-01,9.856760791252e+00,-1.157801877707e-02,6.730109453201e-02,3.449206240475e-03
1.5659686799359757e+18,-3.129820108503e-02,8.393793728845e-01,9.862069489427e+00,8.184729516506e-02,-1.096484810114e-01,1.117112487555e-02
1.565968679939855e+18,-6.611824804042e-02,8.354511145166e-01,9.929526547804e+00,-3.217361867428e-03,4.584079235792e-02,5.326885730028e-02
1.5659686799410227e+18,-5.170447782222e-03,8.102100287421e-01,9.911610714390e+00,-8.656858652830e-02,7.910468429327e-02,-1.141573116183e-02
1.5659686799439675e+18,-2.154155202733e-02,8.454332732821e-01,9.920757434170e+00,1.128368638456e-02,-1.246119439602e-01,-6.690509617329e-02
1.5659686799514703e+18,8.452198103648e-03,8.466404000513e-01,9.886812629015e+00,1.505298465490e-01,-6.884434819221e-02,3.089253231883e-02
1.565968679952557e+18,7.035169481246e-02,8.202162262890e-01,9.955933258743e+00,-1.333011388779e-01,1.628443598747e-02,-2.113289944828e-02
1.5659686799539308e+18,4.530129356595e-02,8.179559963101e-01,9.883040074730e+00,1.347505152225e-01,-7.120869308710e-02,-3.931663185358e-02
1.565968679956003e+18,6.336417271668e-02,8.403970389847e-01,9.948025741796e+00,2.547128498554e-01,1.132114902139e-01,4.056340456009e-02
1.5659686799610783e+18,1.194583402566e-01,8.292499857163e-01,9.896534525959e+00,-1.309457272291e-01,-1.190690696239e-01,-2.963928319514e-02
1.5659686799640417e+18,1.230404840125e-01,8.325569621450e-01,9.850551917434e+00,2.799243330956e-01,-8.597771078348e-02,-2.374576404691e-02
1.5659686799725087e+18,1.126587444395e-01,7.840639449552e-01,9.820013751011e+00,4.643738269806e-03,-1.170881390572e-01,3.928211703897e-02
1.5659686799739254e+18,7.326935623543e-02,7.412588395432e-01,9.799579763916e+00,2.770784497261e-01,3.618784248829e-03,6.420779973269e-03
1.5659686799761446e+18,5.167600940218e-02,6.965507248275e-01,9.786258333459e+00,4.811707139015e-02,2.021239399910e-01,-4.226524382830e-02
1.5659686799797614e+18,3.138771631917e-02,6.717351035635e-01,9.829508850455e+00,-8.587743341923e-02,7.228348404169e-02,1.996047981083e-02
1.5659686799810015e+18,1.437578492498e-02,6.726378365237e-01,9.732316769378e+00,1.713846474886e-01,-1.590799540281e-01,6.243420019746e-02
1.5659686799839173e+18,1.489228992661e-02,6.504878896089e-01,9.795493901744e+00,5.934495478868e-02,-3.743516653776e-02,-3.912929072976e-02
1.5659686799914742e+18,-3.870533326162e-02,6.814047581711e-01,9.787736024384e+00,-1.839513182640e-01,1.596491932869e-01,-7.123344391584e-02
1.565968679995036e+18,-2.018562593201e-02,6.765951021749e-01,9.798764929600e+00,7.757234573364e-02,7.521042972803e-02,5.182742327452e-02
1.5659686799964204e+18,-1.220515237974e-02,6.641377526560e-01,9.783175524147e+00,-7.001411914825e-02,2.195180654526e-01,-4.406140372157e-02
1.565968679999772e+18,-1.893061339878e-02,6.881458462247e-01,9.778273658600e+00,3.380013704300e-01,3.875663131475e-02,6.438874453306e-02
1.565968680001486e+18,2.122988813082e-02,6.870767415163e-01,9.761399457002e+00,6.983487308025e-02,-2.302429378033e-01,2.602995373309e-02
1.56596868000402e+18,-3.568142444361e-02,6.730644700934e-01,9.865566145723e+00,-2.627545297146e-01,2.493083477020e-03,-6.115268170834e-02
1.5659686800196436e+18,5.029302141126e-03,7.112684504576e-01,9.831777994511e+00,1.337599754333e-01,2.771667242050e-01,2.530775964260e-04
1.565968680022835e+18,-4.513350615993e-02,7.633577862470e-01,9.834788322148e+00,1.303008198738e-01,-1.172263175249e-02,-3.333931416273e-02
1.5659686800239025e+18,-6.303919250434e-02,7.881290563247e-01,9.880276418600e+00,8.631566166878e-02,7.939043641090e-02,4.517390951514e-02
1.565968680031457e+18,-6.511442798596e-02,8.212590271637e-01,9.772148957050e+00,6.873048841953e-02,9.567698091269e-02,7.596386596560e-03
1.5659686800426455e+18,-2.466624654157e-02,8.619221237162e-01,9.741087052071e+00,1.263622939587e-01,6.935603916645e-02,8.881387114525e-02
1.5659686800442957e+18,-5.119342538612e-02,9.166390663621e-01,9.706488742781e+00,1.001822948456e-02,-1.327375024557e-01,6.811699271202e-02
1.5659686800514647e+18,-1.565321416984e-01,9.286057763158e-01,9.665348377779e+00,-1.249463558197e-01,-1.800905168056e-02,-3.254446387291e-02
1.5659686800537083e+18,-2.215208775456e-01,8.644765182355e-01,9.678133210027e+00,1.683178842068e-01,-1.021437346935e-02,5.790809914470e-02
1.5659686800543e+18,-2.272285171987e-01,8.766063850245e-01,9.683460613151e+00,-5.931119248271e-02,-1.265697181225e-01,5.544355139136e-02
1.5659686800562445e+18,-2.827498822262e-01,8.754883259588e-01,9.753543378663e+00,7.642912864685e-02,9.372381120920e-02,-3.288101032376e-02
1.5659686800616381e+18,-2.804249155899e-01,8.823146822734e-01,9.755980867255e+00,-1.471430659294e-01,-6.365142762661e-03,3.559752181172e-02
1.565968680063981e+18,-3.159824380168e-01,8.905556003127e-01,9.806844298260e+00,1.035784110427e-01,-2.289418429136e-01,-2.472840249538e-03
1.5659686800714685e+18,-2.816623648342e-01,8.825089653119e-01,9.814276008081e+00,2.078713774681e-01,4.561635851860e-02,-4.274551570415e-02
1.5659686800729974e+18,-2.637057239452e-01,9.419778416523e-01,9.834894706542e+00,-8.595977723598e-02,-8.438616991043e-02,4.106642678380e-02
1.5659686800739323e+18,-2.495035899892e-01,9.195007773387e-01,9.862849251964e+00,4.310856461525e-01,-6.366001814604e-02,-4.256263375282e-02
1.5659686800761116e+18,-2.680685800992e-01,9.085793525107e-01,9.816861967201e+00,1.870094835758e-01,1.174072250724e-01,-1.952024362981e-02
1.565968680079809e+18,-1.836614408701e-01,9.046402803445e-01,9.825105004160e+00,-3.893073201180e-01,1.645998209715e-01,6.802015751600e-02
1.5659686800810496e+18,-1.857060890117e-01,9.454993404582e-01,9.777489219825e+00,3.400009870529e-02,-1.212461292744e-02,1.878073997796e-02
1.5659686800843927e+18,-1.241545427034e-01,9.139104820105e-01,9.754970800040e+00,4.440252780914e-01,-1.212888956070e-01,-7.429929822683e-02
1.565968680096047e+18,-1.659816843642e-01,9.482267557505e-01,9.700022675922e+00,-3.031153082848e-01,5.702159553766e-02,3.645068407059e-02
1.5659686801001408e+18,-1.304087541014e-01,9.975900645055e-01,9.774570078812e+00,6.433038413525e-02,1.337110996246e-01,9.343864023685e-02
1.5659686801011615e+18,-1.564867310522e-01,9.882630903983e-01,9.712557329485e+00,2.755671143532e-01,-3.492716327310e-02,-4.144539684057e-02
1.565968680103969e+18,-1.171455300101e-01,9.820057736866e-01,9.736455239217e+00,-1.854363679886e-01,-6.560581177473e-02,-6.306310743093e-02
1.5659686801153495e+18,-5.422411109462e-02,9.267870123462e-01,9.777794344296e+00,-3.542387783527e-01,-5.354041606188e-02,-2.386651933193e-03
1.5659686801160374e+18,-7.971964992724e-02,9.241963039231e-01,9.815011346366e+00,1.825772672892e-01,7.579027116299e-02,9.443882852793e-03
1.5659686801210401e+18,-7.978840522595e-02,8.700267002173e-01,9.744448097491e+00,-1.184011995792e-01,2.719412744045e-02,2.405010908842e-02
1.565968680123977e+18,-2.507373676566e-02,8.706649335161e-01,9.850957581003e+00,-2.024922668934e-01,8.217159658670e-02,1.151083782315e-02
1.5659686801314483e+18,-7.096202595431e-02,8.523855957337e-01,9.794288601630e+00,3.795270323753e-01,6.166219711304e-02,-3.196880966425e-02
1.5659686801326863e+18,-7.546624694802e-02,8.630011654285e-01,9.826870283668e+00,-2.020464390516e-01,-1.547654718161e-02,5.525275319815e-02
1.5659686801340544e+18,-5.040763488675e-02,8.716454089181e-01,9.903150232406e+00,1.684647798538e-02,-4.195947200060e-02,-3.196803852916e-03
1.565968680136043e+18,-6.892621882346e-02,9.161118206283e-01,9.797284900556e+00,4.423016607761e-01,3.306846320629e-02,-4.875753819942e-02
1.5659686801398152e+18,-4.963708782434e-02,9.173248657602e-01,9.865441056380e+00,1.337701976299e-01,1.774034053087e-01,6.350975483656e-03
1.565968680141169e+18,-5.449522324748e-02,9.377813572466e-01,9.881982076085e+00,-1.362259089947e-01,1.250489205122e-01,3.185077384114e-02
1.5659686801439583e+18,-1.712691020070e-02,9.253584949765e-01,9.858100533183e+00,1.133658289909e-01,-9.884028136730e-02,-2.003041096032e-03
1.5659686801528855e+18,-6.047298865966e-02,9.351414752677e-01,9.801361410253e+00,1.556316316128e-01,-1.832716912031e-02,-1.686577498913e-02
1.5659686801560893e+18,-1.739018600309e-02,8.459008969927e-01,9.807137732139e+00,1.338102668524e-01,1.896708160639e-01,-2.674620598555e-03
1.5659686801612518e+18,-2.666276232081e-02,8.487349889439e-01,9.782399268787e+00,2.643091976643e-02,-5.366272479296e-02,1.839185133576e-02
1.5659686801640364e+18,-6.558373221930e-02,8.397189115381e-01,9.741512589648e+00,9.010064601898e-02,-1.569408625364e-01,8.532962203026e-02
1.5659686801725468e+18,-9.081768490551e-02,9.215255880058e-01,9.809220995770e+00,1.024221703410e-01,-9.279027581215e-02,6.738090515137e-02
1.5659686801740483e+18,-4.219091089457e-02,9.281836728507e-01,9.823734866688e+00,1.653999686241e-01,6.224548816681e-02,8.366686850786e-02
1.5659686801760602e+18,-1.144983596773e-01,9.346376837857e-01,9.810164426606e+00,1.402306556702e-01,2.326833307743e-01,-7.807148247957e-02
1.5659686801798223e+18,-6.826881477917e-02,1.003882891393e+00,9.817330759971e+00,3.856836631894e-02,8.928516507149e-02,-2.482043579221e-02
1.5659686801810524e+18,-1.009713209204e-01,9.845370792852e-01,9.788424600298e+00,9.356649219990e-02,-5.234438180923e-02,1.406582146883e-01
1.5659686801839089e+18,9.348208059615e-02,1.031604355621e+00,9.816395512550e+00,1.587849706411e-01,-2.767681330442e-02,4.780901223421e-02
1.5659686801914647e+18,1.371314842710e-01,1.007695632091e+00,9.788166238198e+00,-8.445902913809e-02,7.853519916534e-02,-9.564974904060e-02
1.5659686801949425e+18,2.996348976227e-01,9.922707717308e-01,9.828176122880e+00,1.673765778542e-01,-3.092749044299e-02,-4.311613738537e-02
1.5659686801960287e+18,2.648499041791e-01,9.642113763054e-01,9.794055958834e+00,-1.647669970989e-01,-1.605513319373e-02,-2.271316945553e-02
1.5659686802001705e+18,2.737972993524e-01,9.701459595905e-01,9.799203326828e+00,2.422338724136e-02,1.775402426720e-01,7.951863110065e-02
1.5659686802010803e+18,2.262324421620e-01,9.717363186039e-01,9.783341530564e+00,2.697597742081e-01,1.041305661201e-01,-1.261033117771e-03
1.5659686802039903e+18,2.452428073233e-01,9.351366528982e-01,9.779433365402e+00,5.455513671041e-02,-6.144316121936e-02,-6.392046064138e-02
1.5659686802127603e+18,1.590522316346e-01,9.371706699070e-01,9.846539705997e+00,2.788492143154e-01,1.960205659270e-02,-8.473470807076e-02
1.5659686802161787e+18,1.120520026750e-01,9.130975474161e-01,9.803131365998e+00,-8.134603500366e-03,1.840637624264e-02,1.217225342989e-01
1.5659686802210143e+18,3.625215370247e-02,8.695763931972e-01,9.790630615153e+00,1.360730081797e-01,5.016829073429e-02,-7.957009226084e-02
1.565968680225361e+18,2.593822870087e-03,8.454117918178e-01,9.827915422661e+00,3.631880134344e-02,-3.276717290282e-02,3.163404017687e-02
1.5659686802315054e+18,-3.728754749067e-02,8.449059544821e-01,9.778002436848e+00,3.987504541874e-02,-4.112838208675e-02,4.783275723457e-02
1.5659686802332078e+18,-1.586963261511e-01,8.251387695716e-01,9.836098837597e+00,4.743344336748e-02,1.263777911663e-01,3.242112696171e-03
1.5659686802347707e+18,-1.488309454474e-01,7.996366913137e-01,9.839007457078e+00,8.329348266125e-02,-1.611115783453e-02,7.734911888838e-02
1.5659686802393572e+18,-2.180887387082e-01,8.145802645828e-01,9.834522945693e+00,1.235122159123e-01,-1.096238866448e-01,-1.013198122382e-02
1.5659686802403848e+18,-2.248163460470e-01,7.991008968340e-01,9.885021630204e+00,5.433367565274e-02,1.591640710831e-01,-2.200205810368e-02
1.5659686802470659e+18,-2.286222185219e-01,8.227705477421e-01,9.799724727266e+00,5.009234324098e-02,-1.898420304060e-01,-6.715331226587e-03
1.5659686802515136e+18,-2.642187948352e-01,8.841543431775e-01,9.867331425231e+00,8.006021380424e-02,-1.933930367231e-01,-6.681589782238e-02
1.5659686802526487e+18,-2.133602592655e-01,8.791599027494e-01,9.769598069708e+00,-2.330130338669e-02,1.865802556276e-01,7.618011534214e-02
1.5659686802538696e+18,-1.615365191305e-01,9.264430897203e-01,9.737990214047e+00,-4.674218595028e-03,-1.883234083652e-01,-5.189196020365e-02
1.5659686802563392e+18,-1.792858711965e-01,9.127854085892e-01,9.798498384085e+00,1.834922730923e-01,3.635746240616e-02,-3.306708112359e-02
1.565968680260068e+18,-1.079851194500e-01,9.163218129009e-01,9.743664827776e+00,8.735342323780e-02,3.069581985474e-01,6.957346946001e-02
1.5659686802611553e+18,-6.700750028577e-02,9.334475083759e-01,9.707903304505e+00,-2.122003734112e-01,-8.380357176065e-02,2.180416882038e-02
1.5659686802639882e+18,-5.475200529093e-02,9.384202481413e-01,9.734930785921e+00,1.386493444443e-02,-3.205561637878e-01,-7.793630659580e-02
1.5659686802715062e+18,-2.215470535135e-02,9.081560069202e-01,9.773434922254e+00,2.562935948372e-01,1.469890773296e-01,-3.527964651585e-02
1.5659686802734003e+18,2.635517186521e-02,9.162929517500e-01,9.729770558274e+00,-2.655127346516e-01,-1.971188336611e-01,2.820113860071e-02
1.5659686802739187e+18,6.461780612530e-02,8.874500674106e-01,9.781807724793e+00,1.684606075287e-02,-1.025911197066e-01,-4.286339879036e-02
1.5659686802761457e+18,1.704577018028e-02,8.816126621778e-01,9.732024504559e+00,2.871057391167e-01,3.162451684475e-01,-4.343299195170e-03
1.5659686802800591e+18,9.953853831088e-02,8.995932322489e-01,9.767734589221e+00,-2.921718358994e-02,1.298909038305e-01,3.550837188959e-02
1.5659686802812495e+18,2.316261711327e-02,9.138460376179e-01,9.750065427315e+00,-4.032428562641e-02,-1.907259821892e-01,1.623287051916e-02
1.5659686802840468e+18,8.495264238076e-02,9.393097561184e-01,9.848065328352e+00,1.288057714701e-01,-2.879492938519e-03,-1.178478728980e-02
1.565968680291479e+18,6.530508511407e-02,9.528892564103e-01,9.812293283548e+00,-6.061603873968e-02,1.210994422436e-01,-2.868720702827e-02
1.5659686803012124e+18,5.351475697873e-02,1.018496716880e+00,9.819634975805e+00,-1.237099319696e-01,-5.213361233473e-02,9.184325113893e-03
1.5659686803023657e+18,1.965929352583e-02,9.911465020378e-01,9.780828053119e+00,-2.125154733658e-01,1.332699954510e-01,-1.326625514776e-02
1.5659686803039826e+18,-8.892689592460e-02,9.641055033746e-01,9.822137931716e+00,-1.604541391134e-01,-2.088243514299e-02,4.795562010258e-03
1.5659686803114627e+18,-1.274876220337e-01,9.868186445959e-01,9.848300309267e+00,-1.593977063894e-01,7.150734215975e-02,-9.174134582281e-03
1.5659686803136282e+18,-1.741070482005e-01,9.584596777308e-01,9.788540337167e+00,1.843579858541e-01,-4.567204415798e-02,1.820545457304e-02
1.5659686803142518e+18,-1.376616161198e-01,9.649562862632e-01,9.808164166183e+00,-4.931675791740e-01,-5.445131659508e-02,6.708234548569e-02
1.5659686803160205e+18,-1.602580066791e-01,9.835743589710e-01,9.794883652802e+00,1.767826080322e-02,1.253156065941e-01,2.125599049032e-02
1.5659686803201743e+18,-1.356608533674e-01,1.001233145476e+00,9.759963852210e+00,5.273336172104e-01,1.148127764463e-01,-4.306363314390e-02
1.5659686803210427e+18,-1.191382372134e-01,1.021468684759e+00,9.753454530158e+00,-1.163662225008e-01,-5.143744871020e-02,1.580542325974e-02
1.5659686803239542e+18,-7.139212103551e-02,1.051151538189e+00,9.828051033537e+00,-3.060675263405e-01,-5.890463665128e-02,5.702243000269e-02
1.5659686803326858e+18,-2.144743362229e-02,1.108238602386e+00,9.801442075343e+00,-2.799006402493e-01,1.820791512728e-04,6.157027930021e-02
1.565968680333938e+18,8.222743734119e-02,1.102243958680e+00,9.813444806936e+00,1.268598884344e-01,2.244232967496e-02,8.200852572918e-02
1.5659686803360448e+18,6.480433501285e-03,1.067902038702e+00,9.703915643313e+00,3.528300225735e-01,-1.668029092252e-02,-1.182526163757e-02
1.5659686803400763e+18,9.009337961746e-02,1.051121800244e+00,9.741070685241e+00,-1.275428980589e-01,1.075019016862e-01,-2.871770411730e-02
1.5659686803413484e+18,4.404435391156e-02,1.035827070794e+00,9.798685433569e+00,-1.099205017090e-01,1.566521227360e-01,2.399124018848e-02
1.565968680343942e+18,1.002667343743e-01,9.993234871478e-01,9.697320979934e+00,3.441486358643e-01,-1.848852783442e-01,4.244207404554e-03
1.5659686803514593e+18,6.559446381813e-02,9.815011054102e-01,9.701945778432e+00,2.442577481270e-02,-1.708063632250e-01,-2.041291259229e-02
1.5659686803537224e+18,3.483764677746e-02,9.179292694062e-01,9.697658838065e+00,2.152456492186e-01,1.272073090076e-01,3.928387910128e-02
1.5659686803560113e+18,-6.202258586405e-02,9.104804620931e-01,9.622995698307e+00,-1.596081405878e-01,-7.938995957375e-02,1.435196120292e-02
1.5659686803598006e+18,-9.515676714312e-02,9.488410964003e-01,9.709131985805e+00,-1.902876347303e-01,3.510800600052e-01,1.526750903577e-02
1.5659686803611098e+18,-1.448209625294e-01,9.440741110677e-01,9.593805457230e+00,3.004759550095e-01,2.430321276188e-02,-1.858704164624e-02
1.5659686803639068e+18,-1.726309647314e-01,9.496712746191e-01,9.577215337036e+00,1.552565991879e-01,-2.964032590389e-01,-1.747638173401e-02
1.565968680376088e+18,-3.209872538460e-01,8.563309515935e-01,9.738046328893e+00,-2.980030328035e-02,1.285238415003e-01,-1.196255441755e-02
1.5659686803798144e+18,-3.020627049422e-01,8.073559897169e-01,9.726304297519e+00,9.092156589031e-02,1.654915511608e-01,-1.425261609256e-03
1.5659686803810417e+18,-3.310671751935e-01,7.937840883103e-01,9.679901996713e+00,5.809623003006e-02,-1.037527993321e-01,3.861043602228e-02
1.5659686803839304e+18,-2.604146028830e-01,7.522751043050e-01,9.789235927436e+00,9.436564147472e-02,-1.047947257757e-01,-1.401732489467e-02
1.5659686803914545e+18,-2.867347303697e-01,7.055216473188e-01,9.784373809905e+00,1.187375485897e-01,5.140228569508e-02,-2.722001262009e-02
1.56596868039457e+18,-2.257317194606e-01,7.294668308851e-01,9.759637684672e+00,-2.860457077622e-02,7.375764101744e-02,8.131806552410e-02
1.5659686803959916e+18,-1.529324346536e-01,7.139304714966e-01,9.815191381495e+00,3.544017672539e-02,7.097152620554e-02,-3.054894134402e-02
1.5659686803997604e+18,-1.348390412291e-01,7.554544340739e-01,9.774331590719e+00,-1.869770511985e-02,1.004577428102e-01,1.161354184151e-01
1.5659686804010496e+18,-9.538245038316e-02,7.888036765935e-01,9.854426179876e+00,6.677448004484e-02,-3.547741845250e-02,2.746716141701e-03
1.5659686804066506e+18,-9.628358502006e-02,7.287890687695e-01,9.822592695775e+00,4.169413447380e-02,-1.311549544334e-01,-1.125541180372e-01
1.565968680415229e+18,-1.243530818483e-01,7.318125483236e-01,9.837864117105e+00,-7.754756510258e-02,-5.137481540442e-02,3.224162384868e-02
1.5659686804174013e+18,-1.346624036790e-01,6.700182669497e-01,9.777989577196e+00,7.695584744215e-02,7.503961771727e-02,6.866627931595e-02
1.5659686804197655e+18,-3.579644891649e-02,7.010542334257e-01,9.764822462564e+00,3.735698461533e-01,1.152896732092e-01,4.452672600746e-02
1.5659686804214927e+18,-8.825629429707e-02,6.559471772319e-01,9.729309948919e+00,-7.986173033714e-03,-9.633813798428e-02,-6.845358014107e-02
1.5659686804239567e+18,-7.824282666283e-02,6.765954675059e-01,9.751944105573e+00,-1.953742653131e-01,-6.497422605753e-02,1.289169117808e-02
1.5659686804315116e+18,-6.683002247434e-02,6.921826809730e-01,9.700719435251e+00,2.628907561302e-01,4.356024041772e-02,5.600848048925e-02
1.5659686804357391e+18,-8.786075039746e-02,7.720867865342e-01,9.817156570139e+00,-1.570879220963e-01,4.994349554181e-03,8.153872191906e-02
1.5659686804361242e+18,-1.062716621481e-01,8.390235404672e-01,9.762603588057e+00,4.379365742207e-01,-6.696283817291e-04,-1.699045300484e-02
1.565968680441281e+18,-1.734918672893e-01,9.066307498953e-01,9.820259253459e+00,-3.061969280243e-01,-2.069869078696e-02,7.863944768906e-02
1.5659686804442765e+18,-8.399958507208e-02,9.517419708627e-01,9.880246023059e+00,-7.090945541859e-02,2.504073642194e-02,8.084674179554e-02
1.5659686804520607e+18,-1.400537305983e-01,9.712692063567e-01,9.845357787068e+00,2.338683903217e-01,-5.877992510796e-02,-1.302260160446e-01
1.5659686804539215e+18,-1.283169508578e-01,9.940939196727e-01,9.873719165118e+00,1.457516103983e-01,-3.781431913376e-02,1.652609556913e-02
1.5659686804562698e+18,-1.123061269352e-01,1.018395008723e+00,9.865957780581e+00,2.771262824535e-01,-9.531676769257e-02,-1.291615962982e-01
1.5659686804598597e+18,-1.954678435705e-01,9.888558034515e-01,9.879904657750e+00,-8.694373071194e-03,1.142838448286e-01,3.980475664139e-02
1.5659686804614477e+18,-1.436412081871e-01,9.981224248736e-01,9.831372330942e+00,-1.154351234436e-01,1.714378595352e-02,1.356427818537e-01
1.5659686804639734e+18,-1.755963566527e-01,9.855523342007e-01,9.837509892144e+00,9.304180741310e-02,-2.805231809616e-01,-4.933346435428e-02
1.565968680471535e+18,-1.854475807792e-01,9.725195883192e-01,9.832489951611e+00,-8.875109255314e-03,-6.536189466715e-02,-1.052965372801e-01
1.5659686804733033e+18,-1.822411799815e-01,9.732503234333e-01,9.829225938110e+00,9.500977396965e-02,-1.124887391925e-01,6.833255290985e-02
1.5659686804739843e+18,-1.650858926935e-01,9.620828116275e-01,9.772244819911e+00,1.696706861258e-01,-2.393971383572e-01,-1.914348080754e-02
1.565968680476118e+18,-2.236112285984e-01,9.545531200257e-01,9.737502716329e+00,3.829613700509e-02,1.404433548450e-01,4.993367940187e-03
1.5659686804799493e+18,-1.633616763929e-01,9.472849323708e-01,9.695275126200e+00,3.504753112793e-02,1.431605964899e-01,2.766739763319e-02
1.565968680481075e+18,-1.907402043891e-01,9.766840697272e-01,9.687520756018e+00,9.534422308207e-02,-2.956550121307e-01,-1.493826741353e-03
1.5659686804839386e+18,-1.689687404151e-01,9.500892133105e-01,9.665475805240e+00,9.480001777411e-02,-2.185483276844e-01,1.026995852590e-02
1.5659686804945219e+18,-1.266722579879e-01,9.632853352259e-01,9.648031102715e+00,-6.683282554150e-02,-4.158143699169e-02,-1.592428795993e-02
1.5659686804949724e+18,-1.163857236798e-01,9.139492070991e-01,9.652199968095e+00,8.725668489933e-02,6.181775033474e-02,5.362919718027e-02
1.5659686804965181e+18,-1.397321479645e-01,8.802873142892e-01,9.648214645021e+00,-2.964746654034e-01,1.590501815081e-01,6.325533613563e-03
1.5659686804998172e+18,-8.959210891953e-02,9.275155554742e-01,9.715441398721e+00,-1.033941730857e-01,-3.630563989282e-02,-2.967608906329e-02
1.565968680501018e+18,-1.508239814487e-01,9.036683536884e-01,9.703425807476e+00,2.789287269115e-01,-1.166704595089e-01,2.285085059702e-02
1.565968680503963e+18,-6.560077491157e-02,8.812959932463e-01,9.711205896962e+00,-1.273415982723e-02,-4.329694062471e-02,3.289327770472e-02
1.5659686805126728e+18,-7.375329197628e-02,8.873634839579e-01,9.754189868443e+00,2.508737146854e-01,1.776704192162e-01,3.899744898081e-02
1.5659686805140864e+18,-7.283967215164e-02,8.713598661898e-01,9.720202977154e+00,-1.880279779434e-01,-5.609498918056e-02,-6.127311848104e-03
1.5659686805159754e+18,-1.050807743429e-01,8.845716973393e-01,9.730868304935e+00,-2.373111844063e-01,-1.425643265247e-01,1.686215400696e-03
1.5659686805210734e+18,-1.266680932142e-01,8.422746212491e-01,9.676522246344e+00,1.068780943751e-01,1.146577969193e-01,-5.131246522069e-03
1.565968680523977e+18,-1.080090851652e-01,8.628850632291e-01,9.779480127773e+00,-1.395644545555e-01,-3.102628290653e-01,-4.050938040018e-02
1.5659686805315238e+18,-1.780170765503e-01,8.568945842972e-01,9.711851217682e+00,-5.909601971507e-02,-1.648169010878e-01,4.347704350948e-02
1.5659686805328177e+18,-1.756501333794e-01,8.788842970249e-01,9.733863434801e+00,-9.396658092737e-02,5.053520947695e-02,-6.759077310562e-02
1.565968680533917e+18,-1.758268074626e-01,8.980093761277e-01,9.833688237369e+00,-1.395129263401e-01,-2.708272039890e-01,-1.641314849257e-02
1.565968680535994e+18,-2.171849097550e-01,9.200606105998e-01,9.778015296500e+00,2.234800159931e-01,1.181103289127e-02,8.544048666954e-02
1.5659686805410386e+18,-1.727029714762e-01,1.000523891826e+00,9.803816434734e+00,-2.120589315891e-01,-4.808682203293e-02,-6.581756472588e-02
1.5659686805520924e+18,-1.603482799751e-01,1.025030662243e+00,9.763265275607e+00,2.424470782280e-01,-1.341598480940e-02,4.992531239986e-02
1.565968680553933e+18,-7.582558654316e-02,1.032432926383e+00,9.699336438127e+00,2.850804924965e-01,-1.356514394283e-01,6.053753197193e-02
1.5659686805560236e+18,-4.618834469188e-02,1.021034817635e+00,9.727962023573e+00,1.772780120373e-01,4.907591640949e-02,2.445838600397e-02
1.565968680559794e+18,-2.593215507260e-02,1.037112305336e+00,9.735846159334e+00,-1.632016003132e-01,1.282462179661e-01,-1.717040501535e-02
1.5659686805610778e+18,-1.097125597969e-03,1.059872939591e+00,9.742590462301e+00,5.285541713238e-02,-2.448607236147e-03,3.200289979577e-02
1.565968680563931e+18,4.216495412532e-03,1.028656937986e+00,9.692274151037e+00,2.970300316811e-01,-1.710085421801e-01,-6.076503545046e-03
1.5659686805714458e+18,4.129405063065e-02,1.052627110195e+00,9.807279188311e+00,-6.685863435268e-02,-6.464652717113e-02,-6.524746119976e-02
1.5659686805726495e+18,4.454547847709e-02,1.027619105613e+00,9.809258405666e+00,1.449880599976e-01,2.387305349112e-02,7.351001352072e-02
1.565968680573964e+18,6.208626306152e-02,9.636034654815e-01,9.814978612707e+00,1.144483387470e-01,-1.885654926300e-01,-3.946545347571e-02
1.565968680576065e+18,-1.082525143597e-02,9.570915861124e-01,9.864267320867e+00,-2.041753530502e-01,2.972674369812e-02,-3.952082619071e-02
1.565968680579845e+18,3.649002073215e-02,9.058992841192e-01,9.839136053598e+00,-9.751686453819e-02,1.812149435282e-01,7.545413821936e-02
1.5659686805809887e+18,-3.955377803160e-02,8.577837269433e-01,9.763106283545e+00,9.635133296251e-02,-9.982786327600e-02,1.543515175581e-02
1.5659686805839404e+18,1.896637017274e-02,8.670383655077e-01,9.832482937255e+00,-7.295628637075e-02,-2.295636832714e-01,-1.077349931002e-01
1.5659686805914452e+18,-3.934549368158e-02,8.033184973729e-01,9.812013878381e+00,-8.713625371456e-02,8.726114779711e-02,-1.094581931829e-02
1.5659686805949668e+18,-2.505825586352e-02,7.745377193075e-01,9.800122207420e+00,-1.824415624142e-01,-7.174360007048e-02,-6.413487344980e-02
1.565968680596025e+18,-2.421318127224e-02,7.561595960163e-01,9.800613212316e+00,1.061053723097e-01,2.016812264919e-01,3.289233148098e-02
1.5659686806042593e+18,-6.584643262533e-02,7.728649416152e-01,9.855083191190e+00,1.493214070797e-02,1.950143277645e-02,-4.186408966780e-02
1.565968680611455e+18,-1.026662468061e-01,7.737163090333e-01,9.830115592220e+00,2.209064215422e-01,1.067224889994e-01,1.379188988358e-02
1.5659686806129308e+18,-1.786397467475e-01,7.668805271783e-01,9.902274607008e+00,-1.817274987698e-01,-9.569139778614e-02,5.515926517546e-03
1.565968680614311e+18,-1.344953104020e-01,7.817359095383e-01,9.909433926017e+00,8.545389771461e-02,1.742634773254e-01,8.835096843541e-03
1.5659686806160274e+18,-2.164787979519e-01,7.833815796687e-01,9.831288158674e+00,1.284367144108e-01,-2.523139119148e-02,-2.161531150341e-02
1.5659686806210957e+18,-2.405304024456e-01,8.549146362799e-01,9.924584934242e+00,-3.594842925668e-02,1.363710314035e-01,2.671114169061e-02
1.5659686806266537e+18,-2.044300711834e-01,8.812092636612e-01,9.957036850700e+00,8.548883348703e-02,3.385985642672e-02,5.642535164952e-03
1.565968680635431e+18,-8.131948014742e-02,9.396673421246e-01,9.977754919200e+00,-8.102604746819e-02,-1.591028422117e-01,1.661829650402e-03
1.5659686806361823e+18,-1.308513343703e-01,9.550309730050e-01,9.950086793301e+00,-1.878295838833e-02,-1.476174443960e-01,-6.683621555567e-02
1.565968680639854e+18,-2.899806782508e-02,9.147142833294e-01,1.004134472949e+01,2.432022839785e-01,1.816798746586e-01,-2.323091030121e-04
1.565968680641298e+18,-4.450589486064e-02,8.942550883934e-01,9.938357621579e+00,-1.317113637924e-04,4.688590019941e-02,6.351606547832e-02
1.5659686806441713e+18,2.008746148588e-02,9.242479617299e-01,9.936282541363e+00,-2.167583703995e-01,-2.559497356415e-01,-8.699871599674e-03
1.5659686806514813e+18,1.673310162345e-02,9.052568129805e-01,9.961868572690e+00,8.635281771421e-02,2.447889745235e-02,-7.902538776398e-02
1.5659686806527741e+18,5.510889716821e-02,8.693164967068e-01,9.832028173196e+00,-2.526609599590e-01,-1.203539818525e-01,7.762090861797e-02
1.5659686806539348e+18,-2.386557793625e-02,8.541694340573e-01,9.803053039026e+00,-1.376290470362e-01,-2.610697150230e-01,-1.756822317839e-02
1.565968680656269e+18,2.695617793268e-02,8.402119622880e-01,9.800158448257e+00,2.468915283680e-01,1.457154899836e-01,-8.811745047569e-02
1.565968680661438e+18,-2.969209630452e-03,8.488342859162e-01,9.771504805388e+00,-2.166280150414e-01,-1.752730906010e-01,7.722644507885e-02
1.56596868066394e+18,-1.180832068827e-03,8.242385208625e-01,9.871951547492e+00,1.441927552223e-01,-1.237395480275e-01,-2.881730347872e-02
1.5659686806718387e+18,-4.746031771790e-02,8.166909280404e-01,9.834061167278e+00,3.355449438095e-02,1.633528769016e-01,-8.834501355886e-02
1.5659686806742697e+18,-5.313874915563e-02,8.586551875678e-01,9.895513937211e+00,3.514638543129e-02,-1.068733185530e-01,7.677482068539e-02
1.5659686806746655e+18,-1.252669848045e-02,8.696246168923e-01,9.965171165147e+00,2.047831565142e-01,-3.105123713613e-02,-3.042267635465e-02
1.5659686806810153e+18,-2.396306651998e-02,1.018302433841e+00,9.952078870308e+00,2.792637348175e-01,-1.102586910129e-01,2.133064344525e-02
1.5659686806845036e+18,-8.492772680493e-02,9.776439404595e-01,9.960912282202e+00,-6.102766096592e-02,-1.130513250828e-01,-4.573246836662e-02
1.5659686806915848e+18,-5.011600939689e-02,1.030237871459e+00,9.963375490098e+00,-4.471169710159e-01,8.080427348614e-02,-8.231963962317e-03
1.565968680697811e+18,-1.285469084708e-01,1.125360936815e+00,9.987115576828e+00,-3.151408433914e-01,1.519210636616e-01,3.124863654375e-02
1.5659686807011743e+18,-1.369831233422e-01,1.105714530341e+00,9.927066847086e+00,4.745846986771e-02,-7.606664299965e-02,-3.288964554667e-02
1.5659686807041582e+18,-1.156785980832e-01,1.104536337789e+00,9.963052829738e+00,-5.483841896057e-01,-1.340772807598e-01,4.531462490559e-02
1.5659686807127567e+18,-1.262725219148e-01,1.128439727486e+00,1.001033660124e+01,1.809084415436e-02,9.763776510954e-02,1.386966556311e-02
1.5659686807179203e+18,-1.287073161902e-01,1.062746195028e+00,9.930917728343e+00,3.407651484013e-01,1.318870186806e-01,-2.602747827768e-02
1.5659686807199163e+18,-7.634840263823e-02,1.041443158493e+00,9.980000682070e+00,2.269454449415e-01,2.741926163435e-02,-7.822865247726e-02
1.5659686807211187e+18,-1.210834148505e-01,1.008663393973e+00,9.948986708522e+00,-2.555820345879e-01,-8.164034783840e-02,4.259158670902e-02
1.5659686807239232e+18,-2.527816687338e-02,1.009795408684e+00,9.999017769322e+00,8.412608504295e-02,-7.649074494839e-02,6.123248115182e-02
1.565968680731484e+18,-7.989833333105e-02,9.925094059557e-01,9.900473086662e+00,2.025543600321e-01,9.309958666563e-03,-4.405015707016e-02
1.5659686807333197e+18,-4.263068724791e-02,9.579384234259e-01,9.909238693118e+00,-1.931778490543e-01,-2.274662628770e-02,3.691866248846e-02
1.5659686807340012e+18,-3.848752290515e-02,9.514899655224e-01,9.789728101392e+00,3.058965802193e-01,-1.330377608538e-01,2.586068585515e-02
1.5659686807360174e+18,-4.477531735752e-02,9.775280574587e-01,9.760636061294e+00,7.364459335804e-02,-2.951532602310e-02,-3.214181214571e-02
1.5659686807460035e+18,-4.749793768009e-02,1.013039548177e+00,9.651988368366e+00,2.837339341640e-01,-3.115841150284e-01,-7.597914431244e-03
1.5659686807540262e+18,-7.415966794075e-02,9.910569959369e-01,9.667773006718e+00,-2.805876135826e-01,-2.462171018124e-02,-1.434907224029e-02
1.5659686807551363e+18,-6.582482329527e-02,1.036753550271e+00,9.743521033485e+00,1.007382497191e-01,-1.386199444532e-01,1.053995825350e-02
1.5659686807568064e+18,-1.293769496905e-01,1.016600210468e+00,9.734894545083e+00,-1.786390841007e-01,2.017891556025e-01,2.993256039917e-02
1.56596868075978e+18,-7.328466360534e-02,1.009711309482e+00,9.793253984170e+00,3.944443166256e-02,1.961313486099e-01,-6.896907463670e-03
1.5659686807610857e+18,-1.354849921458e-01,1.044260006820e+00,9.735217205443e+00,1.540943682194e-01,-1.945994049311e-01,-1.182492170483e-02
1.5659686807639188e+18,-1.158770641619e-01,9.986294312686e-01,9.858499182396e+00,-6.673891097307e-02,-1.753049194813e-01,6.784148048609e-03
1.565968680776015e+18,-1.577451137641e-01,9.772318470645e-01,9.855271409733e+00,3.182563930750e-03,1.626132428646e-02,1.759836450219e-03
1.5659686807772477e+18,-1.821403851520e-01,9.100026821800e-01,9.877598103797e+00,3.801885247231e-02,6.819757074118e-02,-1.406778022647e-02
1.565968680781014e+18,-1.916511572973e-01,9.702768942295e-01,9.888771972363e+00,-1.006270796061e-01,7.540423423052e-02,9.149084798992e-03
1.5659686807840028e+18,-1.682276664331e-01,9.416794392720e-01,9.893898297291e+00,1.326266974211e-01,1.542065665126e-02,-5.101014301181e-02
1.5659686807929423e+18,-1.495272207127e-01,9.335308038494e-01,9.860492428463e+00,5.285218358040e-04,-1.583245694637e-01,-1.204576529562e-02
1.5659686807958927e+18,-1.022676706590e-01,9.259322108164e-01,9.888345265727e+00,1.303407102823e-01,1.979943811893e-01,-3.244437277317e-03
1.5659686807964552e+18,-7.167987401651e-02,9.169362996832e-01,9.800068430693e+00,-1.113582998514e-01,-1.639049351215e-01,3.953254222870e-02
1.5659686807999967e+18,-5.874464411855e-02,8.889657527627e-01,9.777693805199e+00,-9.483552724123e-02,1.885609179735e-01,6.954053789377e-02
1.5659686808010696e+18,-4.581815476533e-02,8.747255878471e-01,9.783251513000e+00,1.980625092983e-01,2.524584233761e-01,-4.091665893793e-02
1.5659686808040259e+18,-1.252817807110e-02,8.627694724931e-01,9.724622021220e+00,3.311860561371e-02,-1.927812844515e-01,-4.585831239820e-02
1.5659686808147333e+18,-4.924167179059e-02,8.531921735683e-01,9.724491086581e+00,-9.642644226551e-02,-2.194737941027e-01,4.291026666760e-02
1.5659686808159222e+18,-7.417724949628e-02,8.732471662594e-01,9.739502976751e+00,-4.892034456134e-02,1.650769114494e-01,-4.507881402969e-02
1.5659686808173635e+18,-1.042617204538e-01,9.074125582865e-01,9.711956433017e+00,1.109085381031e-01,-6.513721495867e-02,3.365768492222e-02
1.565968680821747e+18,-1.387418999576e-01,8.867814385706e-01,9.681342277741e+00,-2.179148495197e-01,1.274152994156e-01,1.647540740669e-02
1.5659686808239636e+18,-1.664302377953e-01,8.763058637242e-01,9.601131951716e+00,-8.009035885334e-02,-1.788559854031e-01,4.448091238737e-02
1.5659686808363702e+18,-1.857327581765e-01,8.399623681325e-01,9.746966251173e+00,1.150973737240e-01,-6.378477811813e-02,3.065132349730e-02
1.5659686808374477e+18,-2.343644915561e-01,7.728378340532e-01,9.831318554215e+00,2.978849411011e-01,-8.272308856249e-03,-8.429606258869e-02
1.5659686808398756e+18,-2.347401979811e-01,8.293479674970e-01,9.836117542546e+00,-1.581835597754e-01,1.309482008219e-01,4.502416029572e-02
1.5659686808412675e+18,-2.216621510526e-01,8.208658579157e-01,9.858492168040e+00,-2.483012080193e-01,8.917585760355e-02,1.326116919518e-01
1.565968680844029e+18,-2.024615580271e-01,8.623625667986e-01,9.912004687366e+00,1.144390255213e-01,-1.235380247235e-01,-6.279839575291e-02
1.5659686808514906e+18,-2.060684346933e-01,8.343908508189e-01,9.928251104133e+00,1.159803569317e-02,-1.250981539488e-01,-1.339786499739e-01
1.5659686808562122e+18,-1.771970180009e-01,9.291703588802e-01,9.955487847159e+00,1.369203925133e-01,-1.183288544416e-01,-8.796373754740e-02
1.5659686808571822e+18,-1.848749609323e-01,9.582975438224e-01,9.959266246741e+00,-1.682951301336e-01,-3.054487705231e-02,-2.099287509918e-02
1.5659686808665175e+18,-1.619586225955e-01,9.922617115214e-01,9.954862400446e+00,1.610430181026e-01,5.233636870980e-02,-9.137108922005e-03
1.5659686808667855e+18,-1.687471671491e-01,1.004538806713e+00,9.933599550323e+00,-1.018360406160e-01,-5.837051570415e-02,-9.260392934084e-02
1.5659686808715108e+18,-1.612398703390e-01,1.009596522475e+00,9.974808889823e+00,-2.651146054268e-01,-6.144989281893e-03,5.859145894647e-03
1.5659686808725194e+18,-1.366003842950e-01,1.038842293867e+00,9.951917540128e+00,1.812492311001e-01,-4.239204525948e-02,-4.109874367714e-02
1.5659686808739697e+18,-2.005832816338e-01,1.039236120711e+00,9.926994365411e+00,-2.054631561041e-01,-2.375325933099e-02,3.617785125971e-02
1.5659686808765524e+18,-1.357945371224e-01,1.011874361409e+00,9.931344434979e+00,-9.384736418724e-02,8.533638715744e-02,7.748746871948e-02
1.5659686808884485e+18,-2.131555277596e-01,1.002110816728e+00,9.866770276778e+00,3.560847043991e-01,-3.512173891068e-02,-4.692050069571e-02
1.56596868088872e+18,-2.299908581369e-01,1.004896465786e+00,9.850956411943e+00,-3.681527674198e-01,1.857590824366e-01,7.412798702717e-02
1.5659686808914588e+18,-1.438046664205e-01,1.073100991438e+00,9.864039354308e+00,2.951513230801e-02,5.963248014450e-02,4.411898553371e-04
1.5659686808960625e+18,-2.041824132822e-01,1.029685271752e+00,9.793165135665e+00,9.231207519770e-02,-1.097968220711e-01,-5.521351099014e-02
1.5659686808997747e+18,-2.220329985750e-01,1.029585828648e+00,9.804351863883e+00,1.987428218126e-01,-5.870199948549e-02,-1.071234568954e-01
1.5659686809010022e+18,-2.485715940140e-01,1.021886185053e+00,9.831296342089e+00,-2.036432027817e-01,2.772994935513e-01,8.244828879833e-02
1.5659686809040453e+18,-2.571431731630e-01,1.025878084086e+00,9.831526646767e+00,-9.171036630869e-02,1.217924878001e-01,7.753910124302e-02
1.5659686809127427e+18,-1.956621631421e-01,9.626797625206e-01,9.851065134456e+00,-2.172944843769e-01,2.683088183403e-01,9.058148413897e-02
1.5659686809141358e+18,-2.216867743636e-01,9.501941363806e-01,9.822206906214e+00,7.971313595772e-02,2.810622006655e-02,4.216228425503e-02
1.565968680916305e+18,-1.703350053784e-01,1.012243564942e+00,9.801791624067e+00,-7.834102958441e-03,-9.884946793318e-02,-5.193773284554e-02
1.565968680919867e+18,-1.893778484678e-01,1.013014267270e+00,9.801163839235e+00,-7.545623183250e-02,2.004163861275e-01,-1.467291265726e-02
1.5659686809212946e+18,-1.643184052784e-01,1.085928055953e+00,9.845678109310e+00,4.868166893721e-02,2.295311391354e-01,9.657390415668e-03
1.56596868092473e+18,-1.721250177964e-01,1.119957544839e+00,9.790768564148e+00,7.058585435152e-02,-1.469891369343e-01,5.223383195698e-04
1.5659686809326707e+18,-1.670900256246e-01,1.146816827851e+00,9.859799176311e+00,5.324404314160e-02,7.704026997089e-03,-3.357955068350e-02
1.5659686809340498e+18,-1.685027241610e-01,1.161601774389e+00,9.855066824360e+00,-4.304521903396e-02,-1.925767213106e-02,5.864798277617e-02
1.5659686809470108e+18,-1.783137618749e-01,1.056935532026e+00,9.952711331377e+00,-3.720620274544e-02,4.673788323998e-02,9.854225814342e-02
1.5659686809539973e+18,-9.105600859897e-02,9.730335360037e-01,9.962067312768e+00,-4.633194953203e-02,2.623281180859e-01,7.535386085510e-02
1.5659686809572406e+18,-1.647569486395e-01,9.383706361882e-01,9.929742823770e+00,-9.543783217669e-02,-2.231284976006e-03,-2.617897093296e-02
1.5659686809598287e+18,-1.304976391395e-01,9.675156492844e-01,9.948271244245e+00,-3.490578383207e-02,-1.603222638369e-01,-4.865595325828e-02
1.5659686809611272e+18,-2.032130804764e-01,9.404926249076e-01,9.910456852884e+00,1.350729167461e-01,1.905380785465e-01,3.184688836336e-02
1.5659686809646346e+18,-1.345890726093e-01,9.417160454406e-01,9.948303977904e+00,8.716251701117e-02,2.172485291958e-01,1.430924795568e-02
1.5659686809714844e+18,-1.214347810961e-01,8.793643419904e-01,9.889450026743e+00,-1.641770452261e-01,-1.629736125469e-01,-1.241221278906e-02
1.5659686809740104e+18,-7.740876680192e-02,8.129427778673e-01,9.910523489263e+00,-1.768222153187e-01,1.472763419151e-01,-4.920317232609e-02
1.565968680979905e+18,-3.246414591463e-02,7.501818306041e-01,9.852055327663e+00,4.530572891235e-02,1.161938905716e-02,5.745851621032e-02
1.5659686809834724e+18,2.457079467829e-03,7.458522195733e-01,9.854061433382e+00,2.412678748369e-01,3.071416616440e-01,-6.875199824572e-02
1.5659686809863647e+18,6.014231841663e-02,7.298349384248e-01,9.919005014315e+00,-1.298312470317e-02,1.115078702569e-01,-2.601023390889e-02
1.5659686809914836e+18,9.096824695375e-03,7.535920495801e-01,9.831246072540e+00,-6.301952898502e-02,-9.995280206203e-02,1.146351397038e-01
1.565968680993935e+18,1.065622281780e-01,7.631480862392e-01,9.954466089351e+00,-1.433142367750e-02,6.925806403160e-02,6.638482213020e-03
1.5659686809962107e+18,2.692377307085e-02,7.567199407408e-01,9.909617468324e+00,8.572619408369e-02,-1.207162160426e-02,1.293226480484e-01
1.5659686810017062e+18,2.700682194587e-03,8.185926952186e-01,9.922928377247e+00,-1.143194884062e-01,1.109052300453e-01,-9.840565919876e-02
1.565968681004124e+18,-7.662936959546e-02,8.367221742150e-01,9.987707120821e+00,-3.112249076366e-02,1.431254744530e-01,8.308020234108e-02
1.5659686810115433e+18,-5.024981188441e-02,8.568174994512e-01,9.955452775381e+00,-1.589399948716e-02,8.019201457500e-03,9.191752970219e-02
1.5659686810148762e+18,-9.392140941897e-02,8.196702756068e-01,9.993344324653e+00,-1.847859025002e-01,-3.168268501759e-02,-6.884300708771e-02
1.5659686810161564e+18,-1.641975537757e-01,8.207604233822e-01,9.988165392058e+00,6.657511740923e-02,-8.069021999836e-02,-2.574659883976e-04
1.565968681021842e+18,-1.764216394357e-01,7.954652686162e-01,9.945796345756e+00,-1.080642566085e-01,2.376352548599e-01,3.834353387356e-02
1.5659686810267026e+18,-1.376024781603e-01,7.630566804171e-01,9.941256888585e+00,2.321211993694e-01,2.235114574432e-01,-1.454389281571e-02
1.5659686810316321e+18,-1.493306726218e-01,7.384058234449e-01,9.950583643494e+00,-3.970096260309e-02,-1.011108607054e-02,-2.968933060765e-02
1.565968681032885e+18,-1.033159149659e-01,7.041070855941e-01,9.956379839387e+00,-1.556865125895e-02,1.235570609570e-01,1.283137872815e-02
1.565968681034016e+18,-1.271059059133e-01,7.151334334922e-01,1.002100894337e+01,1.338563412428e-01,4.096171259880e-02,-1.045792475343e-01
1.5659686810399194e+18,-9.408308666361e-02,7.019488560371e-01,1.002015319198e+01,-1.605042815208e-01,1.082125082612e-01,1.236756742001e-01
1.5659686810412692e+18,-1.149989453795e-01,7.190980057639e-01,9.965180517621e+00,9.969732910395e-02,6.333696842194e-02,-2.786572650075e-02
1.565968681046971e+18,-6.573227581363e-02,7.230253142712e-01,1.002552151218e+01,1.293791234493e-01,7.233648002148e-02,-9.482426941395e-02
1.5659686810514967e+18,-1.595497028899e-01,7.127337931946e-01,1.001221761761e+01,-1.754575222731e-01,1.518074721098e-01,1.000758260489e-01
1.5659686810547172e+18,-9.681566225659e-02,7.222079957044e-01,1.004171064504e+01,-1.196890398860e-01,1.721405237913e-01,-8.153299242258e-02
1.5659686810626834e+18,-1.173317666329e-01,6.910018580374e-01,1.007745580148e+01,-1.054618582129e-01,3.040475547314e-01,1.114467754960e-01
1.5659686810643008e+18,-1.894469325644e-01,7.513969215897e-01,1.001065341630e+01,-6.147985905409e-02,4.115282297134e-01,2.559953927994e-02
1.5659686810715036e+18,-1.801787036858e-01,7.647990171364e-01,9.995773629830e+00,3.527459502220e-02,1.673903912306e-01,7.168453931808e-02
1.5659686810764572e+18,-2.614377124155e-01,9.107440849599e-01,9.933864926779e+00,8.803008124232e-03,1.095150709152e-01,-9.277090430260e-05
1.565968681081964e+18,-2.937230379272e-01,9.416733017108e-01,9.925790234356e+00,-9.564842283726e-02,2.651387155056e-01,7.140226662159e-02
1.5659686810845245e+18,-1.726365542961e-01,9.746293749824e-01,9.932117183161e+00,-1.018823385239e-01,3.929699063301e-01,4.194748401642e-02
1.5659686810916224e+18,-2.355423918434e-01,1.007992134750e+00,9.916679755414e+00,4.053246602416e-02,-1.700274646282e-01,-7.574664056301e-02
1.5659686810951972e+18,-1.405457675546e-01,1.052662474238e+00,9.996202674584e+00,-1.753917932510e-01,1.650549024343e-01,-2.431976050138e-02
1.5659686810969505e+18,-1.592670462767e-01,1.051582263466e+00,9.954096666620e+00,3.834617882967e-02,-4.104997590184e-02,-3.570697456598e-02
1.565968681103032e+18,-1.297501627313e-01,1.013399326169e+00,9.944150310295e+00,-1.817355901003e-01,2.326258420944e-01,5.410331487656e-02
1.565968681104029e+18,-9.883684701322e-02,1.084824610128e+00,9.998961654477e+00,-1.437455117702e-01,6.882202625275e-02,-3.365462645888e-02
1.5659686811114568e+18,-1.580297066317e-01,1.092737680106e+00,9.972477785625e+00,1.710886359215e-01,-3.022328019142e-04,-3.678122907877e-02
1.5659686811127516e+18,-1.178043588454e-01,1.053100067738e+00,1.001731237794e+01,-3.193959295750e-01,-3.683788701892e-02,-7.234343327582e-03
1.565968681113906e+18,-1.119882889444e-01,1.028005918102e+00,9.959352757127e+00,-9.910015761852e-02,9.027570486069e-02,-9.993539191782e-03
1.565968681115982e+18,-1.119033129483e-01,1.005443220196e+00,1.001081591554e+01,2.745882272720e-01,2.050361037254e-01,2.903578430414e-02
1.5659686811198328e+18,-1.241194983249e-01,9.370283369401e-01,1.000823697078e+01,-2.333132922649e-02,-4.107417166233e-02,1.817616634071e-02
1.5659686811211758e+18,-1.579817021352e-01,9.588882840881e-01,1.003839285482e+01,-2.841248810291e-01,-8.190354704857e-02,5.402359180152e-03
1.5659686811245755e+18,-1.989805744318e-01,9.267799249244e-01,1.002516494910e+01,6.663709878922e-02,2.342264354229e-01,8.746460080147e-03
1.5659686811348564e+18,-2.087681578939e-01,9.034656680363e-01,1.003037427724e+01,1.864080429077e-01,1.909071952105e-01,-3.027007542551e-02
1.5659686811365473e+18,-2.683122924253e-01,8.975091648898e-01,1.005398810557e+01,-1.639826297760e-01,9.156517684460e-02,-3.314954787493e-02
1.5659686811439447e+18,-2.304364889199e-01,9.371667243320e-01,1.006609371438e+01,7.890370488167e-02,2.806815505028e-01,-2.361722290516e-03
1.565968681151473e+18,-2.135893583506e-01,1.005202101720e+00,1.009206085903e+01,-2.473994791508e-01,1.343452930450e-02,-4.084831848741e-02
1.565968681152951e+18,-1.225271117244e-01,1.021569004658e+00,1.005959491386e+01,1.749956309795e-01,1.162137184292e-02,3.008140437305e-02
1.5659686811540337e+18,-8.042036396442e-02,9.778786291093e-01,1.001609538723e+01,-2.731978595257e-01,9.098010510206e-02,-2.169532887638e-02
1.5659686811560136e+18,-4.337469301142e-02,9.806776492822e-01,1.001364153181e+01,-2.630419433117e-01,4.578486084938e-02,1.550571247935e-02
1.5659686811600284e+18,5.028315747362e-03,9.550271735623e-01,9.929449389892e+00,2.325000464916e-01,-5.046713352203e-02,4.160689935088e-02
1.5659686811613732e+18,1.923404821398e-02,9.340451168649e-01,9.944306964238e+00,1.636728942394e-01,-7.032617926598e-03,-3.183200210333e-02
1.5659686811639514e+18,2.256656128118e-02,9.465591657586e-01,9.976321652527e+00,-2.816998362541e-01,1.281282007694e-01,-2.248149365187e-02
1.5659686811714568e+18,-5.790569795519e-03,9.452211774166e-01,9.941563182116e+00,-5.526754260063e-02,1.224481686950e-01,8.172321319580e-02
1.565968681172444e+18,2.027993613584e-02,9.065554917043e-01,9.960977749522e+00,-1.772458404303e-01,-1.821899116039e-01,-7.944245636463e-02
1.5659686811740608e+18,4.118203100543e-03,8.958412095669e-01,9.940998526485e+00,-3.575429320335e-01,1.358091086149e-01,3.799432888627e-02
1.5659686811760566e+18,-5.735413944181e-03,9.185582963632e-01,9.929758021541e+00,1.129239946604e-01,2.451281100512e-01,1.219394654036e-01
1.5659686811798444e+18,1.730789518995e-02,8.695725937545e-01,9.891507571070e+00,1.523836851120e-01,-1.122383326292e-01,-6.045959517360e-02
1.5659686811852918e+18,-4.701507966576e-02,8.160790716416e-01,9.972605213087e+00,-6.829109787941e-02,2.606363296509e-01,1.149205937982e-01
1.565968681191471e+18,-7.595551652182e-02,8.151161321287e-01,9.968195521495e+00,1.070321649313e-01,1.248222887516e-01,1.061023175716e-01
1.565968681193893e+18,-1.428852560991e-02,8.185991250446e-01,9.998734856977e+00,-1.506196856499e-01,-2.052882760763e-01,-1.185005083680e-01
1.565968681194958e+18,-3.221825073570e-02,7.718027781962e-01,9.990637952428e+00,7.616822421551e-02,2.576525211334e-01,1.271615177393e-01
1.5659686811959967e+18,-8.324097520089e-02,7.114573265970e-01,9.961170644302e+00,5.402484908700e-02,3.882845491171e-02,2.953974902630e-02
1.5659686812018998e+18,-1.116343105821e-01,6.670517790353e-01,1.000991807802e+01,-3.564640879631e-03,1.111509129405e-01,2.083706855774e-02
1.565968681204541e+18,-1.177020844253e-01,7.074875666247e-01,9.916907721972e+00,1.674564629793e-01,2.052006572485e-01,1.221468746662e-01
1.5659686812124826e+18,-1.574606304958e-01,7.628037982823e-01,9.942353466187e+00,5.167163535953e-02,4.552731662989e-02,2.480588480830e-02
1.5659686812143823e+18,-1.728136302434e-01,7.699783881289e-01,9.844663365858e+00,-2.496374398470e-02,5.780177190900e-03,4.038191959262e-02
1.5659686812160028e+18,-1.991804105019e-01,7.836911611784e-01,9.962506879055e+00,-2.899618148804e-01,2.063825540245e-02,-9.657774120569e-03
1.5659686812210135e+18,-1.873791955020e-01,7.674101110306e-01,9.892500102396e+00,6.322310864925e-02,-2.170313522220e-02,2.465511858463e-02
1.5659686812239642e+18,-1.409179394020e-01,8.288978066093e-01,9.877243878837e+00,4.575781524181e-03,1.280793920159e-02,-1.312454324216e-02
1.5659686812326415e+18,-1.113853466225e-01,7.852539011663e-01,9.867325579934e+00,-8.901020139456e-02,2.403028309345e-02,2.965696714818e-02
1.5659686812331692e+18,-1.397365593366e-01,7.477816057768e-01,9.833329336171e+00,-1.484000496566e-02,-2.566971182823e-01,-3.236823529005e-02
1.5659686812341586e+18,-1.453842207689e-01,7.904699513936e-01,9.895174910021e+00,-8.272905647755e-02,-6.189346313477e-04,-2.347741089761e-02
1.565968681236138e+18,-1.569066790642e-01,7.600489831632e-01,9.897697739940e+00,-3.193764016032e-02,2.890518605709e-01,6.706132739782e-02
1.5659686812439373e+18,-1.830199561252e-01,7.738495817909e-01,9.904382420883e+00,1.409662961960e-01,2.237644493580e-01,-2.762573771179e-02
1.5659686812514755e+18,-1.947321764876e-01,7.979048030616e-01,9.897502507040e+00,-6.039519608021e-02,2.600682377815e-01,6.852628290653e-02
1.5659686812532163e+18,-1.887788517209e-01,8.401212871279e-01,9.927430424521e+00,5.457618087530e-02,-2.201503813267e-01,-6.382668018341e-02
1.565968681253933e+18,-1.451838641021e-01,8.502815082344e-01,9.950992814240e+00,2.005933821201e-01,2.727381587029e-01,-9.816609323025e-03
1.565968681256345e+18,-1.314571810739e-01,8.418188342637e-01,9.956160056243e+00,-1.713182926178e-01,1.170546039939e-01,8.206762373447e-02
1.5659686812601398e+18,-1.165760520100e-01,9.091534336817e-01,9.935864018142e+00,-2.702407240868e-01,-1.363636255264e-01,1.463179290295e-02
1.5659686812612828e+18,-7.810484113509e-02,9.008103690882e-01,9.954808623719e+00,1.778403073549e-01,1.333642601967e-01,-7.707184553146e-02
1.5659686812639688e+18,-1.125313809113e-01,9.078725831118e-01,9.906069373419e+00,2.009333372116e-01,2.972312271595e-01,-2.775757387280e-02
1.5659686812714668e+18,-3.215998957066e-02,9.452404668947e-01,9.921854011772e+00,-2.905909121037e-01,3.080093860626e-02,6.536821275949e-02
1.5659686812723994e+18,-1.511423765693e-02,9.784115740070e-01,9.915642799835e+00,1.944661438465e-01,2.945466339588e-02,-5.975059419870e-02
1.565968681276094e+18,-5.330495650496e-02,1.028241410480e+00,9.879095668731e+00,-3.009462952614e-01,-5.105848237872e-02,5.447834730148e-02
1.5659686812810621e+18,-7.340103066973e-02,9.746996646714e-01,9.804669848006e+00,9.490358829498e-02,8.139608800411e-02,-6.306926906109e-02
1.5659686812839808e+18,-9.539629642896e-02,9.617703074697e-01,9.798124285116e+00,-1.595862060785e-01,8.822705596685e-02,-5.047616735101e-02
1.5659686812914522e+18,-1.410654509362e-01,9.991641297552e-01,9.861487297907e+00,-2.381220459938e-03,3.873877972364e-02,8.527852594852e-02
1.5659686812955223e+18,-1.676466805057e-01,8.861133211941e-01,9.838272118793e+00,-2.957382798195e-01,2.505674771965e-02,-4.956908524036e-02
1.5659686812960637e+18,-1.350256431829e-01,8.356885796821e-01,9.798787141726e+00,2.350306510925e-01,8.754310011864e-02,8.520141988993e-02
1.565968681300999e+18,-1.354368689167e-01,7.295700734325e-01,9.846231074347e+00,-4.364880621433e-01,-4.369548335671e-02,-6.273302435875e-02
1.565968681304014e+18,-2.044645949651e-01,7.057961570501e-01,9.853526004233e+00,-6.614980101585e-02,1.287869513035e-01,8.151207119226e-03
1.5659686813114552e+18,-1.743623049869e-01,6.931052879408e-01,9.860567248256e+00,5.183784961700e-01,1.661527007818e-01,7.585082948208e-02
1.5659686813126966e+18,-1.827874229284e-01,6.697511369050e-01,9.945568379197e+00,-4.253261685371e-01,-8.812853693962e-02,-5.038875341415e-02
1.5659686813141373e+18,-1.665105375544e-01,6.954997405379e-01,9.909384825528e+00,1.937887370586e-01,1.731348633766e-01,-6.568878889084e-03
1.5659686813160036e+18,-1.828100369188e-01,7.237232426593e-01,9.905984032092e+00,3.881254494190e-01,1.222220137715e-01,2.227701433003e-02
1.5659686813198157e+18,-1.467738669177e-01,7.424029101777e-01,9.904550765419e+00,-4.332203269005e-01,-1.094231531024e-01,1.041331700981e-02
1.565968681321106e+18,-1.924918570495e-01,7.409884945855e-01,1.000057144910e+01,-4.810181558132e-01,-5.257504060864e-02,3.006905689836e-02
1.5659686813239383e+18,-1.982900257304e-01,7.929172308567e-01,9.884916414869e+00,4.590890109539e-01,1.450920999050e-01,2.082652784884e-02
1.5659686813314816e+18,-2.089517002004e-01,8.000466657887e-01,9.967627358687e+00,1.939097195864e-01,7.654537260532e-02,-2.121252194047e-02
1.5659686813330852e+18,-2.654175189909e-01,8.423881661314e-01,9.932147578702e+00,-4.438819289207e-01,-3.199962154031e-02,1.172665134072e-02
1.5659686813349517e+18,-2.977375874830e-01,8.459584731621e-01,9.865778914511e+00,2.991743683815e-01,5.577778443694e-02,-3.483264893293e-02
1.565968681336287e+18,-2.330660685639e-01,8.528108410455e-01,9.944598059998e+00,-1.505292057991e-01,1.304558943957e-03,-3.539713099599e-02
1.5659686813421601e+18,-2.463999933416e-01,8.124302915069e-01,9.856828596690e+00,1.796165108681e-01,-4.570556432009e-02,8.180997520685e-02
1.5659686813439158e+18,-2.626310662052e-01,8.098002734657e-01,9.770094919901e+00,1.299926638603e-01,-8.840074762702e-03,-3.102481923997e-02
1.565968681352489e+18,-2.848882377755e-01,8.089178529105e-01,9.722473290269e+00,8.397221565247e-02,-1.396914720535e-01,4.700458422303e-02
1.565968681355829e+18,-2.407776219495e-01,8.414489731351e-01,9.749392049172e+00,-1.766622662544e-01,3.087041527033e-02,-6.570927798748e-02
1.565968681359904e+18,-2.560478011540e-01,7.772197604866e-01,9.703369692631e+00,2.551646232605e-01,2.041037380695e-02,9.280997514725e-02
1.5659686813612045e+18,-2.492997718109e-01,7.568723568439e-01,9.618951922269e+00,8.845046162605e-03,-2.286308407784e-01,6.025975942612e-02
1.5659686813639593e+18,-2.975486382774e-01,7.673371909583e-01,9.646924003580e+00,-1.284607797861e-01,6.280055642128e-02,-5.476152151823e-02
1.5659686813726062e+18,-2.590783681299e-01,6.915664406018e-01,9.556545199966e+00,-1.247726529837e-01,-2.664836347103e-01,2.780004963279e-02
1.565968681373975e+18,-2.932661549487e-01,6.607449965030e-01,9.644078513300e+00,-5.718072503805e-02,2.148632705212e-01,-5.509554967284e-02
1.565968681376042e+18,-2.522999432456e-01,6.789044326434e-01,9.597624773886e+00,1.085616350174e-01,2.163144350052e-01,-1.714307069778e-02
1.5659686813798113e+18,-2.660495051292e-01,7.044616758859e-01,9.577914434483e+00,4.417759925127e-02,-2.112766653299e-01,7.455660402775e-02
1.5659686813810798e+18,-2.776638167772e-01,7.158739594777e-01,9.600255157259e+00,-2.815573103726e-02,-1.750400215387e-01,4.182154685259e-02
1.5659686813839342e+18,-2.598913392574e-01,7.011036992463e-01,9.634875678675e+00,6.080289185047e-02,2.125340253115e-01,-5.254123359919e-02
1.5659686813914557e+18,-2.399333054201e-01,7.354261105475e-01,9.638794365370e+00,3.698416799307e-02,1.736303269863e-01,-2.916214056313e-02
1.565968681395278e+18,-2.571508085814e-01,7.666698042437e-01,9.603019982448e+00,-4.784481227398e-02,-1.564960777760e-01,4.535581916571e-02
1.5659686813964774e+18,-2.578280592336e-01,7.577291311613e-01,9.628448190773e+00,7.409316301346e-02,9.706418216228e-02,-3.158261254430e-02
1.565968681397135e+18,-1.716041288225e-01,7.964581652731e-01,9.622319982045e+00,-1.887328922749e-01,-1.362589746714e-02,1.414311118424e-02
1.5659686813998141e+18,-2.678197896719e-01,7.508520669006e-01,9.571287037444e+00,1.487350165844e-01,-8.061247318983e-02,4.673701524734e-02
1.5659686814039867e+18,-2.751042345574e-01,6.949387382175e-01,9.594055635915e+00,-8.350551873446e-02,-6.390228867531e-03,-2.139216475189e-02
1.5659686814116303e+18,-2.106415753847e-01,7.341098959345e-01,9.608587042723e+00,-1.624231189489e-01,7.628598809242e-02,2.261742390692e-02
1.56596868141674e+18,-2.181402503826e-01,6.746274292800e-01,9.560613526249e+00,-1.034900546074e-02,1.041705384851e-01,4.775748401880e-02
1.5659686814210885e+18,-2.492797882039e-01,6.531610167110e-01,9.588790192933e+00,6.728841364384e-02,-1.818042993546e-01,-3.193883970380e-02
1.565968681423959e+18,-2.680660227820e-01,6.724165189894e-01,9.617912628572e+00,-2.534811198711e-01,-1.461685448885e-01,6.521223485470e-02
1.5659686814337981e+18,-2.606871398269e-01,7.176898738652e-01,9.648429751928e+00,2.654573619366e-01,1.698544174433e-01,3.432527929544e-02
1.5659686814378028e+18,-2.553688699791e-01,7.953122679834e-01,9.674032150085e+00,4.102217257023e-01,1.072494089603e-01,9.589340537786e-03
1.565968681447294e+18,-2.868019512782e-01,8.365269413158e-01,9.688611488323e+00,2.054606676102e-01,-5.157243087888e-02,7.702367007732e-02
1.565968681451447e+18,-2.780185166684e-01,8.302789770783e-01,9.618552103996e+00,4.615670442581e-01,8.083321154118e-02,-9.352585300803e-03
1.5659686814527135e+18,-2.416989137256e-01,8.454100382289e-01,9.641603614812e+00,-1.170212402940e-01,-5.491447448730e-02,2.527300268412e-02
1.5659686814539753e+18,-1.875018371268e-01,8.736850520247e-01,9.562195263450e+00,4.342802166939e-01,-9.874907135963e-02,3.358423337340e-02
1.565968681456294e+18,-1.817992755749e-01,8.847855621207e-01,9.563326912830e+00,1.428189724684e-01,-7.999116927385e-02,-3.026063553989e-02
1.5659686814597368e+18,-1.803625382571e-01,8.902675002672e-01,9.549308723044e+00,-3.378333449364e-01,1.330766268075e-02,-2.112232148647e-02
1.5659686814611955e+18,-1.492114103090e-01,8.816770335042e-01,9.604657834494e+00,1.756373345852e-01,-2.612449973822e-02,4.234348982573e-02
1.5659686814639703e+18,-1.815863241211e-01,8.820349117753e-01,9.465372605104e+00,4.932449460030e-01,-1.239848583937e-01,3.072565607727e-02
1.565968681471466e+18,-1.451982216113e-01,9.113673396868e-01,9.539910655520e+00,-1.375465691090e-01,3.699784725904e-02,-1.450785435736e-02
1.5659686814761795e+18,-1.853394062630e-01,8.957488538840e-01,9.538997620225e+00,-3.559798002243e-01,7.432406395674e-02,-5.699934437871e-03
1.5659686814810708e+18,-2.112858731785e-01,8.818306186667e-01,9.527654238064e+00,4.807187318802e-01,-1.319050937891e-01,1.606256328523e-02
1.565968681484013e+18,-1.987719338840e-01,9.294610162428e-01,9.556755630636e+00,1.437987089157e-01,-2.112616002560e-01,2.599917119369e-03
1.5659686814915945e+18,-2.362944257562e-01,8.923497409712e-01,9.587883002934e+00,-1.723302751780e-01,1.999523937702e-01,2.359843626618e-02
1.5659686814981225e+18,-2.076660637940e-01,8.513441831169e-01,9.711942404306e+00,-1.617819517851e-01,2.441806197166e-01,2.275891974568e-02
1.5659686815014845e+18,-1.808135028730e-01,8.612299675582e-01,9.647543604996e+00,1.797237545252e-01,-2.522264719009e-01,-6.339932791889e-03
1.5659686815039299e+18,-1.976326125528e-01,8.662341988578e-01,9.713891226120e+00,-5.299090594053e-02,2.028691768646e-02,-5.510943476111e-03
1.5659686815124623e+18,-1.456886785109e-01,9.320564739692e-01,9.671347989986e+00,2.856502123177e-02,-2.421482950449e-01,-2.573947794735e-02
1.565968681516025e+18,-9.712109725915e-02,9.017690707612e-01,9.676888161898e+00,5.426496267319e-02,8.176829665899e-02,3.836666420102e-02
1.5659686815198223e+18,-6.876872461904e-02,9.731622055903e-01,9.673841593423e+00,9.523047134280e-03,-1.247556060553e-01,3.980798646808e-02
1.5659686815210179e+18,-5.050926997760e-02,9.559186543269e-01,9.693041053922e+00,6.419177353382e-02,-3.231141716242e-02,-2.489751204848e-02
1.5659686815239283e+18,-2.675670719361e-02,9.667509383851e-01,9.760115829916e+00,1.227180287242e-01,9.294398128986e-02,-2.080275490880e-02
1.565968681531447e+18,-2.627429670978e-02,9.680213404877e-01,9.702605127864e+00,-1.125579327345e-02,-4.494386911392e-02,4.701302945614e-02
1.565968681533097e+18,-5.522572089639e-03,9.968859254900e-01,9.716668910961e+00,1.119387894869e-01,2.080576680601e-02,-4.128279536963e-02
1.565968681534013e+18,-2.908998511070e-02,9.941265072000e-01,9.725191353087e+00,3.988373279572e-02,1.541070640087e-03,-1.767919585109e-02
1.5659686815359972e+18,-2.476596364455e-02,1.063468454462e+00,9.690759050214e+00,-2.125173956156e-01,-7.074087113142e-02,7.277761399746e-02
1.5659686815422674e+18,-4.425882148916e-02,1.114818798656e+00,9.655841587741e+00,1.842398941517e-01,1.028877422214e-01,-5.901397019625e-02
1.565968681543998e+18,-1.058909689547e-01,1.111706397531e+00,9.621378889327e+00,2.742345258594e-02,-1.026060134172e-01,-8.754290640354e-03
1.5659686815515512e+18,-1.202882444771e-01,1.166403977633e+00,9.575070113263e+00,3.756953775883e-02,-1.167537048459e-01,8.937404304743e-02
1.5659686815534828e+18,-1.562659980475e-01,1.180024979529e+00,9.541419911046e+00,8.249098062515e-02,4.806747287512e-02,-6.002025678754e-02
1.565968681556161e+18,-2.203565675724e-01,1.170762303682e+00,9.512939288950e+00,5.247091874480e-02,-6.446343660355e-02,5.774501711130e-02
1.5659686815779525e+18,-2.210097794431e-01,1.160754864010e+00,9.619569185567e+00,8.211363106966e-02,2.244587689638e-01,2.697361633182e-03
1.565968681580377e+18,-2.525218087765e-01,1.078935839353e+00,9.589171306257e+00,-1.357831209898e-01,-2.248649299145e-01,9.388731792569e-03
1.5659686815813263e+18,-2.556139705630e-01,8.814039120308e-01,9.652892051187e+00,-4.523779824376e-02,-2.045699954033e-01,-3.188923001289e-04
1.5659686815817677e+18,-1.870064117252e-01,7.924032831722e-01,9.680481850114e+00,-3.090601563454e-01,-1.635079681873e-01,-1.025440637022e-02
1.5659686815839729e+18,-2.767891412397e-01,7.584558476341e-01,9.667770668600e+00,1.543307453394e-01,-6.795068085194e-02,3.080701828003e-02
1.5659686815914583e+18,-2.255630095937e-01,7.226960779524e-01,9.691203292739e+00,3.838069438934e-01,1.463097780943e-01,2.246020734310e-02
1.5659686815950602e+18,-2.571030963497e-01,7.499029369004e-01,9.678434827321e+00,-1.538126766682e-01,-1.184376180172e-01,1.633027568460e-05
1.5659686815961252e+18,-2.664629867821e-01,7.210393017589e-01,9.671587647138e+00,-3.656916320324e-02,2.162874676287e-03,-3.656265139580e-02
1.5659686815997553e+18,-2.692612762930e-01,7.443124223736e-01,9.718816472852e+00,-5.595951080322e-01,-3.377718478441e-02,4.315205663443e-02
1.5659686816011172e+18,-2.306415126905e-01,7.703919428480e-01,9.664105667768e+00,4.817968606949e-02,-8.859460055828e-02,4.867804050446e-02
1.565968681604011e+18,-2.564066658188e-01,7.434889662457e-01,9.639500477173e+00,5.762541294098e-01,1.299899071455e-02,-2.605392411351e-02
1.565968681614601e+18,-2.160823407248e-01,7.608238502650e-01,9.618744998777e+00,-1.318542510271e-01,1.307864785194e-01,-2.440629526973e-03
1.5659686816162184e+18,-1.823564053864e-01,8.241895665053e-01,9.606933992906e+00,3.192820250988e-01,-1.043797358871e-01,-1.718558743596e-02
1.5659686816197745e+18,-2.204249210069e-01,7.693435158755e-01,9.605985885832e+00,-1.426269263029e-01,1.083311811090e-02,1.084410697222e-01
1.5659686816210588e+18,-1.489028334597e-01,7.770803501679e-01,9.511322479970e+00,6.022968888283e-01,-6.473495811224e-02,2.602107822895e-03
1.5659686816297917e+18,-1.860162185179e-01,7.508729638352e-01,9.574757974436e+00,1.779686957598e-01,-6.134189665318e-02,-6.628637015820e-02
1.5659686816329539e+18,-1.706483497977e-01,7.677196194741e-01,9.595805717652e+00,-4.454942941666e-01,1.636873930693e-01,6.156594306231e-02
1.565968681636122e+18,-1.138950794242e-01,7.269680397476e-01,9.721252792385e+00,-3.824432790279e-01,1.065194457769e-01,8.517991006374e-02
1.5659686816398408e+18,-1.361987302340e-01,7.219801022117e-01,9.656305704274e+00,3.419252634048e-01,-5.629554390907e-02,9.242632985115e-02
1.5659686816424535e+18,-1.024703928441e-01,7.636116913086e-01,9.704515370722e+00,1.886980086565e-01,-1.586120724678e-01,-5.687992274761e-02
1.5659686816440952e+18,-2.039389201548e-01,7.236082364529e-01,9.729634947398e+00,-2.611325085163e-01,1.203006803989e-01,-4.201386868954e-02
1.565968681652883e+18,-2.535499964102e-01,7.798643187027e-01,9.678425474846e+00,2.752672433853e-01,-1.300314217806e-01,1.489162445068e-02
1.5659686816540808e+18,-2.959491459884e-01,8.144631394565e-01,9.764537212100e+00,-1.640261411667e-01,1.348151415586e-01,-3.552912175655e-02
1.5659686816560443e+18,-2.429500263502e-01,8.580670046192e-01,9.729281891496e+00,3.132777214050e-01,3.075493872166e-02,7.538554072380e-02
1.5659686816597535e+18,-3.281884763242e-01,8.761363501291e-01,9.630745392251e+00,1.854533851147e-01,-2.123070210218e-01,4.279471933842e-02
1.5659686816613486e+18,-3.115038449944e-01,8.802400404547e-01,9.719264222555e+00,-2.430360019207e-01,-1.864201575518e-02,-4.508084803820e-02
1.5659686816640102e+18,-3.455978513394e-01,8.712653915870e-01,9.744420040069e+00,4.855804145336e-02,2.233970761299e-01,-2.974802069366e-02
1.5659686816714673e+18,-3.174498996737e-01,8.912555014883e-01,9.673739885266e+00,2.871938645840e-01,4.890820384026e-02,3.047728911042e-02
1.565968681672969e+18,-2.527763349009e-01,8.883523619735e-01,9.657769366488e+00,-9.919255226851e-02,3.833538293839e-02,-3.990217298269e-02
1.565968681673923e+18,-2.235628222377e-01,8.487646538231e-01,9.656110471375e+00,1.961665749550e-01,1.165243983269e-01,-3.847533836961e-02
1.5659686816761288e+18,-1.602287436641e-01,8.954322580187e-01,9.578504809418e+00,8.410087227821e-02,-2.201989591122e-01,5.822023749352e-02
1.565968681680019e+18,-1.746236628015e-01,8.702646768463e-01,9.582207220147e+00,-1.020130962133e-01,-1.804283559322e-01,5.942625552416e-02
1.5659686816815964e+18,-8.891778091555e-02,8.615445906360e-01,9.644327522926e+00,-2.177317440510e-02,1.894941627979e-01,-6.787355244160e-02
1.565968681694575e+18,-6.809694479896e-02,8.456825021066e-01,9.622677714183e+00,-6.555356085300e-02,9.043709188700e-02,4.483910650015e-02
1.5659686816974193e+18,-6.246822578032e-02,8.593421560252e-01,9.649146385264e+00,-1.036201715469e-01,-1.053190529346e-01,8.060713112354e-02
1.5659686817013187e+18,-9.297238901811e-02,8.453191438702e-01,9.687562842152e+00,1.298011243343e-01,3.259780630469e-02,-7.731600105762e-02
1.5659686817039905e+18,-1.302132380706e-01,9.029045195836e-01,9.674865689349e+00,3.635168075562e-02,-6.704010069370e-02,-7.841669023037e-03
1.5659686817119299e+18,-1.138414488299e-01,9.268841903986e-01,9.751000674736e+00,-2.477728947997e-02,4.703666642308e-02,6.847055256367e-02
1.565968681712876e+18,-5.933146620901e-02,9.106360200430e-01,9.757608197768e+00,2.198638767004e-02,-8.857155591249e-02,-4.911451786757e-02
1.5659686817140708e+18,-1.013399033904e-01,9.134500187880e-01,9.702633185287e+00,-1.363000273705e-01,-6.641634553671e-02,-1.372951176018e-02
1.5659686817160003e+18,-3.776427707708e-02,9.485064531824e-01,9.827807869208e+00,6.727887690067e-02,1.184862703085e-01,2.917136438191e-02
1.565968681719778e+18,-9.034227051079e-02,9.154927306752e-01,9.733903182817e+00,1.450722664595e-01,2.934622019529e-02,-1.032639015466e-02
1.565968681721031e+18,-3.474853340745e-02,9.684627334309e-01,9.772553451560e+00,-1.893473863602e-01,-1.222882419825e-01,-3.817798197269e-02
1.5659686817239288e+18,-1.106124066419e-01,9.643695646387e-01,9.725215903332e+00,2.028289437294e-02,3.799064829946e-02,1.475308928639e-02
1.5659686817314744e+18,-3.145450796362e-02,9.830924873504e-01,9.814729603081e+00,3.100962340832e-01,1.865634322166e-01,4.533196240664e-02
1.5659686817325665e+18,-8.082073936682e-02,9.727738587119e-01,9.724417435846e+00,-1.616139262915e-01,5.029174312949e-02,5.526940338314e-03
1.565968681733919e+18,-1.123035696181e-01,1.014184860937e+00,9.788248072348e+00,2.161533981562e-01,9.972864389420e-02,-2.249903604388e-02
1.5659686817361495e+18,-1.297991536216e-01,9.944098579422e-01,9.772615411701e+00,6.411743164062e-02,1.151494234800e-01,-8.609537035227e-03
1.5659686817397952e+18,-1.127248510883e-01,1.028740379592e+00,9.804246648548e+00,-4.258411526680e-01,-8.955332636833e-02,2.246502973139e-02
1.5659686817410962e+18,-1.512768457859e-01,1.060322296750e+00,9.788467855492e+00,-5.400590598583e-02,-4.019569233060e-02,1.539363805205e-02
1.565968681745377e+18,-1.188854646780e-01,1.072018077217e+00,9.876396310861e+00,4.891756176949e-01,1.786470264196e-01,-1.983778923750e-02
1.565968681751465e+18,-1.577138779616e-01,1.072680276231e+00,9.844782609904e+00,-1.617959141731e-02,1.120484694839e-01,2.364161983132e-02
1.5659686817566185e+18,-1.236286943608e-01,1.119361470740e+00,9.920828746786e+00,-3.940183520317e-01,-8.708849549294e-03,4.327204823494e-02
1.5659686817602324e+18,-1.438713484657e-01,1.099133311144e+00,9.896948372943e+00,-3.066544532776e-01,-7.039824873209e-02,9.216825664043e-02
1.5659686817611287e+18,-1.297625200531e-01,1.087616250614e+00,9.896886412802e+00,4.220140576363e-01,4.353394359350e-02,-3.605475276709e-02
1.5659686817748956e+18,-1.837384161168e-01,1.009545229999e+00,9.887175037391e+00,-4.717864990234e-01,1.068406179547e-01,1.012151241302e-01
1.5659686817760914e+18,-2.385389465010e-01,9.435354670060e-01,9.876899006350e+00,-3.787804543972e-01,1.005773618817e-02,1.220168843865e-01
1.5659686817798364e+18,-1.936297901229e-01,9.468173086601e-01,9.875055399871e+00,1.808008104563e-01,-5.867496877909e-02,3.760008141398e-02
1.565968681781014e+18,-2.386949063151e-01,9.170270479095e-01,9.849739421237e+00,1.545888483524e-01,-1.587242074311e-02,-9.915049374104e-02
1.565968681783962e+18,-2.243342552278e-01,9.263635936895e-01,9.867672790539e+00,-2.611556947231e-01,1.833216398954e-01,1.635631173849e-02
1.5659686817914647e+18,-2.563739686921e-01,9.344436199458e-01,9.847218929436e+00,-1.879790425301e-01,1.183471158147e-01,1.158206388354e-01
1.5659686817939617e+18,-2.336094984620e-01,9.092232849735e-01,9.801961137662e+00,1.198998615146e-01,-1.876426935196e-01,-4.698793590069e-02
1.5659686817950264e+18,-2.231952626945e-01,9.126502361104e-01,9.898600253701e+00,-3.105992078781e-01,1.428343057632e-01,3.618908300996e-02
1.5659686817961252e+18,-1.950032886405e-01,9.404202162987e-01,9.863348440275e+00,1.499555706978e-01,3.402877226472e-02,1.189882755280e-01
1.5659686817998618e+18,-2.054399557328e-01,9.086278684707e-01,9.856239390814e+00,3.444680571556e-02,-3.735876083374e-02,-2.219545468688e-02
1.565968681801158e+18,-2.172277265510e-01,9.215163085978e-01,9.846464886203e+00,-3.482979238033e-01,1.165291517973e-01,-7.328872382641e-02
1.565968681804002e+18,-2.065213355637e-01,9.277277397329e-01,9.943315601971e+00,-1.017354279757e-01,2.378021776676e-01,5.682818219066e-02
1.5659686818141568e+18,-1.940244206949e-01,1.016265494184e+00,1.000019384295e+01,1.151853650808e-01,1.518599092960e-01,7.621867954731e-02
1.5659686818198397e+18,-2.269962397337e-01,9.950019864658e-01,9.957685678599e+00,-2.831535935402e-01,-2.300211042166e-02,-3.317916765809e-02
1.56596868182107e+18,-2.568276367576e-01,1.006416169779e+00,9.889832309127e+00,-1.785993576050e-01,3.038656115532e-01,-1.355330832303e-02
1.5659686818240202e+18,-2.454306240027e-01,1.022209941407e+00,9.934056652501e+00,2.756354510784e-01,1.239814162254e-01,4.717751592398e-02
1.5659686818328806e+18,-2.141550369080e-01,9.993019326174e-01,9.915513034256e+00,8.708909898996e-02,1.829217374325e-01,-2.390309050679e-02
1.5659686818340424e+18,-2.387971259356e-01,9.942054917674e-01,9.854965116203e+00,1.771959662437e-01,-3.193326294422e-03,5.706075578928e-02
1.5659686818361572e+18,-1.958355857792e-01,9.810381579366e-01,9.847531068263e+00,-2.357384264469e-01,-1.494002342224e-01,4.069010913372e-02
1.5659686818399173e+18,-2.279252034613e-01,9.474886409497e-01,9.868951741388e+00,-3.112459778786e-01,1.194707006216e-01,-2.123128250241e-02
1.5659686818412646e+18,-1.923004601261e-01,9.224823899575e-01,9.831504434640e+00,1.350298523903e-01,2.255574762821e-01,-2.291867695749e-02
1.5659686818440453e+18,-1.823104832767e-01,9.363114844050e-01,9.832796245141e+00,1.239026337862e-01,-4.551244154572e-02,2.459805458784e-02
1.565968681852118e+18,-1.531001033271e-01,8.943329769677e-01,9.853423127017e+00,-2.203526049852e-01,-1.025912538171e-01,1.331869699061e-02
1.565968681856287e+18,-5.029723185131e-02,7.859215070795e-01,9.835794882185e+00,-1.921907961369e-01,1.380948349833e-02,3.851200640202e-02
1.5659686818611492e+18,-6.570359732825e-03,7.849140702479e-01,9.752262089696e+00,1.636053808033e-02,1.127485856414e-01,-3.043871372938e-02
1.5659686818640663e+18,-1.415905229503e-02,7.973282376397e-01,9.799047841945e+00,1.376501563936e-02,-2.436904609203e-02,3.610771149397e-02
1.5659686818761213e+18,3.588326070106e-02,7.331808591406e-01,9.781662761443e+00,-5.582064390182e-03,7.869712263346e-02,7.636647671461e-03
1.5659686818798648e+18,2.789037502725e-03,7.448447096755e-01,9.773609112086e+00,-2.355534434319e-01,3.734610229731e-02,-3.183077648282e-02
1.5659686818813146e+18,-2.891443442043e-02,7.765788968045e-01,9.748220651777e+00,3.085276484489e-02,6.626825034618e-02,5.120362155139e-03
1.5659686818839785e+18,-4.262125257421e-02,8.150672508377e-01,9.846572439656e+00,2.280741035938e-01,7.059467583895e-02,2.739257737994e-02
1.5659686818915005e+18,-6.749103416249e-02,7.734651074213e-01,9.780390824950e+00,-1.112154722214e-01,-2.172208949924e-02,6.685265339911e-03
1.5659686818946913e+18,-5.039837374529e-02,8.203217338887e-01,9.830382137735e+00,-3.755808472633e-01,3.919212892652e-02,-6.079548969865e-03
1.5659686818961213e+18,-9.409512432085e-02,8.297103028065e-01,9.825490793722e+00,-2.921151220798e-01,-7.278624176979e-02,7.015964947641e-03
1.5659686818997824e+18,-1.114927904767e-01,8.781368297499e-01,9.823919578054e+00,-4.515583515167e-01,1.653607189655e-02,9.480169974267e-03
1.5659686819011776e+18,-9.980775074242e-02,8.971765675256e-01,9.837029408782e+00,3.263061046600e-01,1.806814819574e-01,-1.762852631509e-02
1.56596868190565e+18,-1.215822834970e-01,8.875845092274e-01,9.788148702309e+00,2.912546992302e-01,7.870498299599e-02,-8.335890248418e-03
1.5659686819139077e+18,-7.352409242515e-02,8.932513048720e-01,9.846476576796e+00,-7.057906687260e-02,-1.729616150260e-02,5.745803937316e-03
1.5659686819160026e+18,-5.164348580778e-02,8.339603447403e-01,9.915800622838e+00,-5.549821257591e-01,-6.733150035143e-02,6.483082473278e-02
1.5659686819198067e+18,-5.110857725581e-02,8.681952227281e-01,9.918800428941e+00,5.814987421036e-02,7.471829652786e-02,-2.146027982235e-04
1.5659686819211643e+18,-5.294515111277e-02,8.149577976629e-01,9.926489331803e+00,4.752111434937e-01,1.291521489620e-01,-5.949334055185e-02
1.565968681924016e+18,-3.563982237326e-02,8.391881586266e-01,9.899187121458e+00,-1.997092962265e-01,4.737493768334e-02,1.551533490419e-02
1.5659686819315446e+18,-4.479869854305e-02,7.763078211847e-01,9.936682359636e+00,-3.822939991951e-01,2.180503215641e-04,6.188089400530e-02
1.565968681932982e+18,-7.995726122521e-02,7.695141254637e-01,9.940963454707e+00,9.651488065720e-02,8.951713144779e-02,-6.111470237374e-02
1.565968681933928e+18,-1.317355998472e-01,7.731896478292e-01,9.886812629015e+00,-3.328862190247e-01,-3.581177443266e-04,4.839320853353e-02
1.5659686819359729e+18,-1.501549964109e-01,7.394947290948e-01,9.884440607743e+00,-1.263130307198e-01,-3.026071935892e-03,6.327933818102e-02
1.5659686819397875e+18,-2.222696234792e-01,7.325752133691e-01,9.747740168414e+00,2.939658164978e-01,7.050507515669e-02,-4.699761420488e-02
1.5659686819411704e+18,-2.110759905052e-01,7.480054075621e-01,9.798420057113e+00,7.375543564558e-02,7.263123244047e-02,-4.541117697954e-02
1.565968681944e+18,-2.718369330779e-01,7.355598217022e-01,9.711839527090e+00,-1.877917498350e-01,1.996564492583e-02,6.750147789717e-02
1.565968681951473e+18,-2.437655182618e-01,7.255925684425e-01,9.728958062077e+00,3.946860134602e-02,-3.743380308151e-02,3.995465487242e-02
1.565968681953988e+18,-2.479145096344e-01,6.866116020566e-01,9.684679941976e+00,-2.909372746944e-02,1.042657792568e-01,7.360400259495e-02
1.5659686819559875e+18,-2.673160347230e-01,6.420961629230e-01,9.643017007477e+00,1.807765364647e-01,-4.224514961243e-02,2.369339764118e-02
1.565968681959855e+18,-2.496654316328e-01,7.043088213855e-01,9.664387411053e+00,-1.953522115946e-02,5.342961475253e-02,-4.681251943111e-02
1.5659686819610493e+18,-2.738246991792e-01,6.783331279881e-01,9.698972860692e+00,-1.022388190031e-01,2.262878715992e-01,-4.102811217308e-04
1.565968681964152e+18,-2.205470146351e-01,7.097814801240e-01,9.753318919282e+00,6.773287057877e-02,-2.845013886690e-02,4.133896529675e-02
1.565968681971978e+18,-2.593378262231e-01,6.922990023710e-01,9.735202007673e+00,1.706967875361e-02,-2.125192880630e-01,-1.205298118293e-03
1.565968681974091e+18,-2.564137532406e-01,7.343087821439e-01,9.898791979423e+00,2.742632627487e-01,-2.027155458927e-02,1.744486205280e-02
1.5659686819760673e+18,-2.977006890496e-01,7.835217206495e-01,9.884856792846e+00,-6.063432991505e-02,-1.157898977399e-01,1.773034408689e-02
1.5659686819810555e+18,-4.066868246385e-01,8.105082119238e-01,9.917830109742e+00,1.798369884491e-01,2.858668863773e-01,-1.597768068314e-02
1.5659686819839552e+18,-4.030329298695e-01,7.743115794037e-01,9.814975105529e+00,2.439235895872e-02,-1.470379084349e-01,1.438655983657e-02
1.565968681991488e+18,-4.543374615533e-01,7.709574022068e-01,9.779868255453e+00,-2.165104448795e-01,-1.421802937984e-01,2.508397586644e-02
1.565968681995339e+18,-3.938378402620e-01,7.349190310863e-01,9.798403690283e+00,-9.390762448311e-02,-8.326632529497e-02,3.141102939844e-02
1.5659686819961976e+18,-4.657262908933e-01,7.026074017408e-01,9.743386591668e+00,-1.183611303568e-01,1.417679339647e-02,4.321809485555e-02
1.5659686819997814e+18,-3.877528867274e-01,7.341695910238e-01,9.845418578150e+00,1.363183110952e-01,3.113954961300e-01,-4.815418645740e-02
1.565968682001002e+18,-4.453157580497e-01,7.032773457725e-01,9.750170642650e+00,5.758568271995e-02,7.825469970703e-02,-4.424985870719e-02
1.5659686820039608e+18,-3.953242991322e-01,7.793467907742e-01,9.776064136567e+00,-9.929344058037e-02,-2.626267373562e-01,5.477943271399e-02
1.5659686820115384e+18,-4.077742689643e-01,7.830671027233e-01,9.800749992251e+00,-2.110974490643e-02,1.757869124413e-02,2.542786486447e-02
1.5659686820130924e+18,-3.609036868518e-01,8.585011640081e-01,9.855802162645e+00,-4.430585354567e-02,-1.274463534355e-02,-7.459610700607e-03
1.5659686820141773e+18,-3.666769399568e-01,8.865893475182e-01,9.886239789970e+00,-3.618059307337e-02,-3.791874274611e-02,7.130414247513e-02
1.5659686820159905e+18,-3.363884407557e-01,9.226133245964e-01,9.924878368120e+00,9.215088188648e-02,1.823670566082e-01,-5.190979689360e-03
1.565968682019829e+18,-3.315794788884e-01,9.125663561073e-01,9.955536947649e+00,-2.314919233322e-02,1.727910935879e-01,-5.055990070105e-02
1.5659686820314673e+18,-2.558672545619e-01,9.343861899088e-01,9.935319236519e+00,2.727393805981e-02,3.341129049659e-02,-5.748755857348e-02
1.5659686820353585e+18,-1.598713403234e-01,9.796281993829e-01,9.958118230531e+00,2.422945946455e-01,2.809536270797e-02,4.948686808348e-03
1.5659686820360945e+18,-2.164238521659e-01,9.347919265440e-01,9.927611628709e+00,-3.557178378105e-02,1.415909826756e-01,-5.592515319586e-02
1.5659686820442668e+18,-2.098418292402e-01,9.834750619987e-01,9.974556373019e+00,3.420662879944e-01,-1.890265941620e-01,-5.199700593948e-02
1.5659686820539648e+18,-2.232549212507e-01,8.771317310369e-01,9.922239801333e+00,2.396418154240e-01,-1.269596815109e-02,-7.740555703640e-02
1.5659686820639813e+18,-1.305301627339e-01,8.112199498247e-01,9.839292707541e+00,2.258147299290e-02,-2.310636043549e-01,-8.609221130610e-02
1.5659686820714831e+18,-1.573784675485e-01,7.953941021328e-01,9.792681145124e+00,-3.895796537399e-01,1.339046806097e-01,6.148772314191e-02
1.5659686820729848e+18,-1.389973394095e-01,7.541151305401e-01,9.723668068850e+00,3.986735641956e-01,-1.673286557198e-01,-9.016203135252e-02
1.565968682073995e+18,-1.497501365702e-01,7.811980692048e-01,9.801993871322e+00,3.232757747173e-02,-1.112645789981e-01,-3.753333538771e-02
1.5659686820761244e+18,-1.697421461928e-01,7.585809369767e-01,9.795087069116e+00,-2.232478260994e-01,2.735154628754e-01,1.144146099687e-01
1.5659686820810962e+18,-1.903773941492e-01,7.875020752214e-01,9.802309517326e+00,3.053999543190e-01,-3.124856948853e-01,-1.175135299563e-01
1.5659686820840343e+18,-2.638727898224e-01,8.015514642763e-01,9.847699412799e+00,-8.546607196331e-02,3.091618418694e-02,-7.874891161919e-03
1.5659686820914834e+18,-1.859151679567e-01,7.971007825442e-01,9.836676352880e+00,-1.503215581179e-01,2.777739167213e-01,9.461697936058e-02
1.5659686820968553e+18,-2.389523550877e-01,8.054768730623e-01,9.809970362766e+00,1.280703842640e-01,-2.486364245415e-01,-7.966437935829e-02
1.5659686820971901e+18,-2.704037760042e-01,7.793163221668e-01,9.791040954959e+00,-1.736665517092e-02,1.270000040531e-01,6.992045789957e-02
1.5659686820998106e+18,-3.025309131825e-01,8.046770903847e-01,9.730649690850e+00,1.325568854809e-01,-1.919502913952e-01,-4.754224792123e-02
1.56596868210187e+18,-3.147709638083e-01,7.974692554149e-01,9.770161556280e+00,7.701089233160e-02,-1.213686466217e-01,-5.773622542620e-02
1.5659686821039447e+18,-2.812193279015e-01,7.997135569611e-01,9.754873768120e+00,-7.569062709808e-02,1.685508638620e-01,2.006752789021e-02
1.5659686821160243e+18,-2.578571030500e-01,8.052041899860e-01,9.722842713001e+00,-6.780721247196e-02,-9.600084275007e-02,1.440624520183e-02
1.5659686821198638e+18,-3.037725637335e-01,8.370109318563e-01,9.687872642860e+00,2.481980621815e-02,-9.049021452665e-02,1.671259291470e-02
1.5659686821210179e+18,-2.426308731677e-01,7.968736927797e-01,9.729782248867e+00,9.437866508961e-02,1.264365911484e-01,-3.399358689785e-02
1.565968682123913e+18,-2.936582647367e-01,7.936439473295e-01,9.736604878805e+00,-1.186744570732e-01,9.350892156363e-02,-4.539415985346e-02
1.5659686821314588e+18,-2.220946664518e-01,8.292157176663e-01,9.711042228663e+00,-1.759633421898e-01,-8.924495428801e-02,3.982015699148e-02
1.565968682132817e+18,-1.972432062144e-01,8.424341978404e-01,9.709349430830e+00,1.170127168298e-01,6.569879502058e-02,-4.111857712269e-02
1.5659686821340114e+18,-2.225833697625e-01,8.604656219900e-01,9.731404903142e+00,-4.759099334478e-02,-6.243833154440e-02,-2.866104245186e-02
1.5659686821360023e+18,-2.161209562140e-01,9.194697972679e-01,9.727500245159e+00,3.108444623649e-02,-9.741966426373e-02,7.811762392521e-02
1.5659686821398323e+18,-1.544526409771e-01,9.275802190654e-01,9.746679831650e+00,1.027987003326e-01,7.907447218895e-02,2.102154120803e-02
1.5659686821411034e+18,-1.710829841168e-01,8.905104453981e-01,9.746585137849e+00,5.463439226151e-02,2.156835049391e-02,-1.165706515312e-01
1.5659686821440417e+18,-9.992217241911e-02,9.233362416266e-01,9.783426871891e+00,-8.928527683020e-02,-1.369616389275e-01,-3.505825623870e-02
1.5659686821514455e+18,-1.381604938996e-01,9.091334135416e-01,9.774164415243e+00,1.172322779894e-02,1.579660922289e-02,1.104620844126e-01
1.565968682160333e+18,-1.068136307221e-01,9.411980791149e-01,9.869367926490e+00,-1.204385533929e-01,-9.554550051689e-04,2.682434022427e-02
1.5659686821626327e+18,-1.035567594435e-01,9.008865040736e-01,9.890133926420e+00,4.154660552740e-02,1.472432017326e-01,9.993984550238e-02
1.565968682164627e+18,-1.113114492897e-01,8.634769725540e-01,9.867665776184e+00,-5.574347451329e-02,-2.540781348944e-02,7.081932574511e-02
1.565968682172539e+18,-5.311926787877e-02,8.489009222950e-01,9.894227972007e+00,2.088342905045e-01,1.025929301977e-01,7.728424668312e-02
1.565968682173687e+18,-1.006384769577e-01,8.036959573868e-01,9.894617268746e+00,-2.411954402924e-01,-1.073853000998e-01,-3.854557126760e-02
1.565968682174051e+18,-1.061079573163e-01,8.302999470791e-01,9.831260101252e+00,1.001421585679e-01,1.161657199264e-01,7.639339566231e-02
1.565968682176079e+18,-1.041339641947e-01,8.077271660373e-01,9.857245950851e+00,2.806538641453e-01,4.330851882696e-02,-1.614145934582e-03
1.565968682181127e+18,-1.041057149733e-01,7.691938032219e-01,9.824665437872e+00,-1.261943876743e-01,-8.317837119102e-02,1.461913809180e-02
1.565968682188193e+18,-5.185275655156e-02,8.015052133687e-01,9.788989255929e+00,3.109472393990e-01,6.149900704622e-02,4.720354825258e-02
1.5659686821914609e+18,-1.054157006923e-01,7.582639027141e-01,9.831638876457e+00,1.124613806605e-01,-4.245051741600e-02,-1.560875587165e-02
1.5659686821939756e+18,-1.097472845107e-01,7.793730946079e-01,9.817537683463e+00,-3.382928669453e-01,-7.702253758907e-02,6.155071780086e-03
1.5659686821988756e+18,-1.558478401575e-01,8.060562880662e-01,9.795117464657e+00,4.682937264442e-02,-7.575410604477e-02,-2.627630345523e-02
1.5659686821997565e+18,-2.037654609846e-01,8.510511876357e-01,9.734812710934e+00,-2.679364979267e-01,-8.427971601486e-02,6.378972530365e-02
1.5659686822054902e+18,-2.243843055781e-01,9.221756580298e-01,9.683337861927e+00,3.659006953239e-01,-1.271585375071e-01,-5.837599188089e-02
1.5659686822179156e+18,-2.589033015032e-01,9.283013094404e-01,9.734967026758e+00,3.283751308918e-01,-1.327924281359e-01,-8.418371528387e-02
1.5659686822244884e+18,-2.851252280107e-01,8.714114509304e-01,9.869168017354e+00,4.058836400509e-02,-1.012962535024e-01,-5.972500517964e-02
1.565968682231776e+18,-3.067811012487e-01,8.531516218247e-01,9.894970324647e+00,-2.485027611256e-01,1.480201780796e-01,1.131468862295e-01
1.5659686822340923e+18,-3.435574045045e-01,8.781449400987e-01,9.856010255196e+00,5.653426796198e-02,7.146224379539e-02,-4.107169806957e-03
1.565968682236135e+18,-2.798181372923e-01,9.111897157429e-01,9.852628166709e+00,-1.109321415424e-01,2.772719562054e-01,1.245315298438e-01
1.5659686822412826e+18,-3.135796558724e-01,9.610175794280e-01,9.723678590384e+00,1.717601865530e-01,-2.845942974091e-01,-1.064577847719e-01
1.565968682244259e+18,-3.628095457374e-01,9.550949790004e-01,9.683197574813e+00,-1.228747814894e-01,1.940861642361e-01,7.629297673702e-03
1.565968682253114e+18,-2.882661249559e-01,9.728998248489e-01,9.557649960983e+00,6.566666811705e-02,-1.023696810007e-01,-4.406937584281e-02
1.5659686822546458e+18,-2.554435436404e-01,9.267823361091e-01,9.544727179739e+00,1.118795573711e-01,3.294189572334e-01,2.411262877285e-02
1.5659686822563779e+18,-2.203218245920e-01,8.678556110083e-01,9.545260270770e+00,8.749726414680e-02,1.843427270651e-01,4.406432062387e-02
1.56596868226014e+18,-1.794033251207e-01,8.709537642236e-01,9.466785997770e+00,4.021316394210e-02,-1.474251896143e-01,5.005843006074e-03
1.5659686822639933e+18,-1.359622240624e-01,8.354423465720e-01,9.529147126760e+00,3.593053668737e-02,2.321920990944e-01,-3.572700917721e-02
1.5659686822714785e+18,-9.892141201198e-02,8.042343091837e-01,9.537562015433e+00,2.428439818323e-02,-4.334941506386e-02,3.910337388515e-02
1.5659686822726671e+18,-7.008271071281e-02,8.240596547931e-01,9.548650542672e+00,1.076453998685e-01,1.236257329583e-01,-9.090172126889e-03
1.5659686822788393e+18,-9.077857621940e-02,8.737524921317e-01,9.580851111386e+00,1.643795333803e-02,-4.244162142277e-02,4.870329052210e-02
1.565968682283984e+18,-1.884931263271e-01,8.344910245857e-01,9.655880166698e+00,-5.153600126505e-02,1.018417775631e-01,-5.352108180523e-02
1.5659686822914762e+18,-1.564562624448e-01,8.981119610792e-01,9.629002324870e+00,-8.808033913374e-02,-5.689096078277e-02,9.635094553232e-02
1.5659686822940124e+18,-1.608576610218e-01,8.522182010585e-01,9.604767726066e+00,3.681424260139e-02,4.865559190512e-02,6.867036968470e-02
1.5659686822953997e+18,-1.330563902313e-01,8.313581649230e-01,9.633407340224e+00,4.590153694153e-02,6.279023736715e-02,-4.339929670095e-02
1.565968682296581e+18,-1.513376551349e-01,8.777887423503e-01,9.638433126054e+00,-1.860622316599e-02,9.813647717237e-03,1.043369770050e-01
1.565968682300311e+18,-7.193381561125e-02,8.958330261520e-01,9.636776569059e+00,8.750869333744e-02,-2.357285283506e-02,1.757745444775e-02
1.565968682303925e+18,-4.768157131927e-02,8.784155773212e-01,9.609044144900e+00,-1.139180064201e-01,4.840134084225e-02,-2.134364843369e-02
1.5659686823139676e+18,-9.362963779671e-02,8.952398747015e-01,9.576479998751e+00,-8.665444701910e-02,7.565595954657e-02,2.609787322581e-02
1.5659686823172918e+18,-5.242458180349e-02,9.150203576612e-01,9.595183778117e+00,1.977154612541e-01,9.689080715179e-02,7.393234968185e-02
1.5659686823213537e+18,-9.368551517682e-02,8.898069639784e-01,9.636748511636e+00,-1.686092466116e-01,-3.603276610374e-02,-9.338285028934e-02
1.5659686823239345e+18,-1.696159608571e-01,8.588095033923e-01,9.613553206530e+00,-4.210408031940e-02,6.872390210629e-02,4.907988756895e-02
1.5659686823314675e+18,-1.465227566384e-01,8.580922855261e-01,9.657277192533e+00,3.253725767136e-01,8.850468322635e-03,7.712959498167e-02
1.5659686823340518e+18,-2.126333966602e-01,7.829331723699e-01,9.684018254426e+00,1.788398027420e-01,1.596495509148e-01,2.484899759293e-02
1.5659686823360097e+18,-2.451016434156e-01,7.883386102000e-01,9.703030665441e+00,4.023213386536e-01,4.531005769968e-02,-1.420686021447e-02
1.5659686823465628e+18,-2.031218207867e-01,8.026484802750e-01,9.638294008000e+00,3.061259388924e-01,6.041745841503e-02,2.180285379291e-02
1.5659686823514609e+18,-2.300230803332e-01,8.006895753247e-01,9.651741696858e+00,2.920722961426e-01,-8.226963132620e-02,7.407348603010e-03
1.5659686823539802e+18,-2.137663246986e-01,7.965111382715e-01,9.606350632327e+00,4.932159185410e-01,9.863900393248e-02,-6.365747749805e-02
1.5659686823560113e+18,-1.610842393228e-01,8.046002247372e-01,9.624730582273e+00,2.548268437386e-01,-3.364607691765e-02,-3.016990423203e-02
1.56596868236687e+18,-1.265786693129e-01,7.262231297898e-01,9.574787200918e+00,4.027515351772e-01,-2.310977317393e-02,-4.457003250718e-02
1.5659686823717806e+18,-8.526790478786e-02,7.566742743628e-01,9.595201314006e+00,1.710872352123e-02,-1.807381957769e-02,3.291662037373e-02
1.565968682379278e+18,-1.084059077234e-01,7.270226202026e-01,9.528435169661e+00,6.956894695759e-02,9.059523046017e-02,-6.008197367191e-02
1.565968682383953e+18,-1.467795295486e-01,7.725469574919e-01,9.561751020925e+00,2.231721282005e-01,1.549658551812e-02,-4.429640620947e-02
1.565968682394903e+18,-1.860149398594e-01,7.841489209513e-01,9.564329965689e+00,-9.674453735352e-02,1.538577675819e-01,7.108307629824e-02
1.5659686823965192e+18,-1.783016328849e-01,8.314333500478e-01,9.652018763907e+00,1.345384865999e-02,1.900173127651e-01,6.256957352161e-02
1.5659686823998853e+18,-1.820434262982e-01,7.807072835073e-01,9.649409423602e+00,-5.876600369811e-02,-1.772637479007e-02,1.034417748451e-02
1.5659686824010716e+18,-1.627333070318e-01,8.390568586566e-01,9.627302512681e+00,4.150458425283e-02,1.350089162588e-02,-4.587521031499e-02
1.5659686824040177e+18,-1.795547182970e-01,8.276393873642e-01,9.645692984161e+00,1.078373640776e-01,1.948018074036e-01,-6.592013873160e-03
1.565968682414355e+18,-1.607970160718e-01,8.567445063126e-01,9.636833852963e+00,5.517473444343e-02,1.223180592060e-01,1.407430693507e-02
1.5659686824173727e+18,-2.113727123629e-01,8.732316031578e-01,9.578158767872e+00,1.397180557251e-01,1.187321543694e-02,-7.148444652557e-03
1.5659686824176394e+18,-2.010413702047e-01,8.759362217942e-01,9.616520278974e+00,5.669348686934e-02,5.631808936596e-02,-1.601199246943e-02
1.565968682421819e+18,-2.276188003316e-01,8.766964025888e-01,9.602491567655e+00,1.108294278383e-01,1.447079330683e-01,1.610939204693e-02
1.5659686824239987e+18,-1.299256038222e-01,8.765065765887e-01,9.679430865824e+00,1.372561007738e-01,2.757770419121e-01,-4.752409830689e-02
1.5659686824340078e+18,-1.738708616935e-01,8.651393748453e-01,9.704446396224e+00,1.452213823795e-01,2.674115300179e-01,1.893153972924e-02
1.565968682434936e+18,-1.390314065275e-01,8.118052831912e-01,9.754976645336e+00,1.828057467937e-01,2.615558207035e-01,-7.017531991005e-02
1.5659686824361203e+18,-1.108901404196e-01,7.914555414300e-01,9.777306846578e+00,2.704448997974e-04,-8.730806410313e-02,7.591094821692e-03
1.5659686824413617e+18,-8.412237282922e-02,7.651415515044e-01,9.860393058424e+00,9.767068922520e-02,1.685427427292e-01,-4.525096341968e-02
1.5659686824441603e+18,-1.312066553242e-01,7.422208291954e-01,9.932502972722e+00,-3.758566081524e-02,1.175599247217e-01,-1.198950856924e-01
1.5659686824539546e+18,-1.392207393307e-01,7.919703659089e-01,9.985124668880e+00,-4.044097661972e-02,1.346175670624e-01,-8.311679959297e-02
1.5659686824589286e+18,-2.179701522578e-01,8.149545827499e-01,9.930246688318e+00,-2.911204099655e-02,-1.102846860886e-02,9.141895174980e-02
1.5659686824598659e+18,-1.560560423081e-01,8.262745837250e-01,9.913162056050e+00,1.670253872871e-01,-7.845626771450e-02,3.463026136160e-02
1.5659686824611197e+18,-2.046724317846e-01,8.335855881760e-01,9.965210913162e+00,-9.778223186731e-02,1.029669120908e-01,-1.466412097216e-01
1.565968682463963e+18,-1.703427869292e-01,8.813258042578e-01,9.936358530216e+00,-2.706512808800e-01,1.376311928034e-01,-4.488839581609e-02
1.565968682471467e+18,-1.524590752459e-01,8.992493826891e-01,9.876659349198e+00,2.109411656857e-01,3.445684164762e-02,1.274527609348e-01
1.5659686824740467e+18,-7.770824690878e-02,9.362018850978e-01,9.885156072021e+00,-1.531412899494e-01,2.314192503691e-01,2.888739109039e-02
1.565968682476177e+18,2.619999751279e-02,9.644096779852e-01,9.852263420215e+00,2.758686542511e-01,-1.933895796537e-02,7.062357664108e-02
1.5659686824798103e+18,6.454074867908e-03,9.582317111719e-01,9.877407547135e+00,1.101060658693e-01,-1.686262190342e-01,-7.941789925098e-02
1.5659686824814853e+18,4.597971327739e-02,9.852591195209e-01,9.904152116206e+00,-2.912193238735e-01,1.020937412977e-01,-6.412980705500e-02
1.565968682483919e+18,5.308903673654e-02,1.029898259739e+00,9.870353443460e+00,1.600567996502e-02,2.777503132820e-01,6.950573623180e-02
1.5659686824914778e+18,9.622195367632e-02,1.050625096183e+00,9.826980175240e+00,4.604470133781e-01,-3.011154383421e-02,2.194896712899e-02
1.565968682495595e+18,8.080938670525e-02,1.082733236149e+00,9.884301489689e+00,-1.096001267433e-02,-1.032511144876e-01,-6.882645934820e-02
1.5659686824962944e+18,2.570575943707e-02,1.122759779925e+00,9.881790350363e+00,-4.834393262863e-01,3.267751634121e-01,1.543591916561e-02
1.5659686824999122e+18,-2.696522900879e-02,1.127082888063e+00,9.896944865766e+00,-2.779948711395e-01,-1.148501485586e-01,-8.889988064766e-02
1.5659686825015235e+18,-2.695323701793e-02,1.123306680468e+00,9.925361189601e+00,-4.180313646793e-01,3.431909084320e-01,7.336584478617e-02
1.5659686825039503e+18,-2.377564257143e-02,1.121464827577e+00,9.865611739035e+00,3.470258712769e-01,8.516989648342e-02,2.834323421121e-02
1.5659686825131638e+18,9.701849404108e-03,1.025861059660e+00,9.968348668261e+00,-1.889844387770e-01,3.959482908249e-01,1.073820590973e-01
1.5659686825139653e+18,-6.858655230395e-02,1.003768615848e+00,9.818732462044e+00,3.648192286491e-01,-8.694253861904e-02,-6.835061311722e-02
1.5659686825160238e+18,1.740345665254e-04,9.722160713045e-01,9.940258511963e+00,2.951399981976e-02,-2.392618805170e-01,-1.117865219712e-01
1.5659686825198198e+18,-7.583688440507e-02,9.619006575790e-01,9.892793536274e+00,-3.187246322632e-01,2.440879493952e-01,6.557324528694e-02
1.5659686825212667e+18,-1.231242270164e-02,9.697400768229e-01,9.895079047160e+00,1.328435540199e-02,1.669515073299e-01,6.605453789234e-02
1.5659686825239596e+18,-3.888308507131e-02,1.018532373188e+00,9.817835793579e+00,3.091932833195e-01,-2.310475409031e-01,-8.158452808857e-02
1.5659686825397793e+18,-1.942103011199e-01,1.056067067116e+00,9.863362468987e+00,-2.552634105086e-02,9.855552017689e-02,-2.175746858120e-02
1.5659686825441185e+18,-2.170424671888e-01,1.079153065180e+00,9.826768575511e+00,1.105032116175e-01,-1.140580475330e-01,-4.132357984781e-02
1.5659686825525368e+18,-2.424710408447e-01,1.040339785734e+00,9.847594197464e+00,-3.504025191069e-02,-5.796612426639e-02,-3.147174045444e-02
1.5659686825539622e+18,-1.810148002672e-01,1.020199378650e+00,9.844198080266e+00,6.772063672543e-02,1.150695830584e-01,-3.947363048792e-02
1.5659686825560422e+18,-1.935883250517e-01,1.013812661689e+00,9.870287976141e+00,-2.744670212269e-02,1.052787750959e-01,-2.638730034232e-02
1.5659686825660803e+18,-1.561078827804e-01,1.090184673845e+00,9.881446646936e+00,9.399203956127e-02,1.633215248585e-01,-1.326725352556e-02
1.565968682571531e+18,-2.101357380489e-01,1.085609925697e+00,9.905569016049e+00,-1.853028386831e-01,-1.325925439596e-02,-2.348110452294e-02
1.5659686825732352e+18,-2.282556453725e-01,1.101889149190e+00,9.988173575473e+00,8.999378234148e-02,1.625316143036e-01,1.836920157075e-02
1.5659686825742738e+18,-2.043662843866e-01,1.030577921576e+00,9.972369063113e+00,7.190534472466e-02,1.049197316170e-01,-6.896958500147e-02
1.5659686825761203e+18,-1.916825392322e-01,1.038622218458e+00,1.004908156378e+01,-1.311320364475e-01,-9.626881778240e-02,-4.827953130007e-02
1.565968682579844e+18,-2.044817655233e-01,9.618964197391e-01,1.002840791954e+01,-2.992645651102e-02,-1.252186298370e-02,7.208829373121e-02
1.5659686825815795e+18,-1.555823175693e-01,9.272665458483e-01,1.006644326310e+01,1.712251603603e-01,1.179389059544e-01,4.459912329912e-02
1.5659686825839675e+18,-1.482675776087e-01,8.448936062935e-01,1.007236221022e+01,-8.609069883823e-02,-7.783402502537e-02,-6.961221992970e-02
1.565968682591512e+18,-1.682225517987e-01,8.648638421871e-01,1.007715418419e+01,-1.940328180790e-01,-1.064425036311e-01,-6.735183298588e-03
1.5659686825939448e+18,-1.331510383663e-01,8.119955475885e-01,1.013032416915e+01,1.363327503204e-01,1.632193773985e-01,8.551041781902e-02
1.5659686825960218e+18,-1.815143539093e-01,7.421951098913e-01,1.009863447934e+01,4.836110770702e-02,3.087361156940e-02,2.407550439239e-02
1.5659686825998136e+18,-1.727627761649e-01,7.759191089752e-01,1.013333917302e+01,2.652572691441e-01,1.276724487543e-01,6.925984472036e-02
1.5659686826010662e+18,-1.933940785462e-01,7.549050492801e-01,1.008075371770e+01,-2.729804217815e-01,-8.721347898245e-02,-4.342656955123e-02
1.565968682604098e+18,-2.432047351401e-01,7.754796157534e-01,1.007829284793e+01,-3.257533609867e-01,-1.228255555034e-01,-3.728615120053e-02
1.5659686826114793e+18,-2.301882830222e-01,7.879876001522e-01,1.003588171549e+01,3.365848660469e-01,1.073905155063e-01,4.720775038004e-02
1.5659686826132452e+18,-2.100554748230e-01,7.860137166299e-01,1.002495218031e+01,-4.304890632629e-01,-3.268868848681e-02,-5.309637263417e-02
1.565968682616045e+18,-2.239294684533e-01,7.607607941303e-01,9.926760553555e+00,4.538724422455e-01,7.900963723660e-02,2.217213436961e-02
1.5659686826198193e+18,-2.279678010587e-01,7.306383744127e-01,9.914057555456e+00,-1.602017879486e-01,-5.546775087714e-02,-9.841299615800e-04
1.5659686826212933e+18,-2.512427117955e-01,6.956908086634e-01,9.937026063063e+00,-4.084004759789e-01,-1.003225147724e-01,2.478215657175e-02
1.5659686826239421e+18,-2.397787703969e-01,7.452512500389e-01,9.879086316257e+00,3.478766679764e-01,1.800397038460e-02,3.152318671346e-02
1.565968682632113e+18,-2.562760599777e-01,7.154799134353e-01,9.896769506874e+00,4.217829704285e-01,7.248191535473e-02,-3.375905752182e-02
1.565968682635559e+18,-2.483392069497e-01,7.040584965679e-01,9.955684249117e+00,-1.499808579683e-01,3.016873076558e-02,5.378906428814e-02
1.5659686826441746e+18,-3.319232919150e-01,7.248090064624e-01,9.968892280824e+00,1.368387192488e-01,-4.367788136005e-02,-8.606278896332e-02
1.5659686826554565e+18,-3.167269826435e-01,7.066854458286e-01,1.003783404448e+01,-7.189176976681e-02,-2.572158277035e-01,-1.319569349289e-01
1.5659686826642432e+18,-3.619710745044e-01,5.876751749396e-01,1.005285879431e+01,-3.731804341078e-02,-2.643600702286e-01,-2.284103631973e-02
1.5659686826643953e+18,-3.206511127709e-01,6.545589193410e-01,1.010185757576e+01,-1.582285016775e-01,3.775289654732e-02,-1.163161993027e-01
1.5659686826761377e+18,-2.570721893451e-01,7.751592204455e-01,1.001984456033e+01,1.286448240280e-01,1.882576793432e-01,4.705889895558e-02
1.5659686826798364e+18,-2.220720524614e-01,8.293692297626e-01,9.934628322487e+00,-9.885650873184e-02,-2.828053534031e-01,4.395604506135e-02
1.565968682681067e+18,-3.203033541692e-01,9.003209716485e-01,9.919967150099e+00,-2.402892559767e-01,-1.998500823975e-01,-4.255281388760e-02
1.5659686826839841e+18,-2.336919171410e-01,9.111430995043e-01,9.950654956110e+00,1.838671416044e-01,3.736691772938e-01,-3.383244201541e-02
1.5659686826961277e+18,-2.056141820981e-01,9.123730229294e-01,9.867790865526e+00,-1.347315907478e-01,-1.977254748344e-01,3.028422594070e-02
1.5659686827026414e+18,-1.837330457508e-01,9.188958622293e-01,9.922341509490e+00,1.138228327036e-01,2.414052486420e-01,-9.639834053814e-03
1.5659686827039444e+18,-1.953997093345e-01,9.262819787388e-01,9.893683190384e+00,-9.113401919603e-02,2.762147486210e-01,-3.976834937930e-02
1.5659686827135672e+18,-1.588149491346e-01,9.381211150989e-01,9.905604087827e+00,3.638952970505e-03,1.608830541372e-01,-4.680731892586e-02
1.565968682714353e+18,-1.316252150783e-01,9.470704830597e-01,9.952044967589e+00,-3.027641773224e-01,1.473382115364e-02,-2.198567986488e-02
1.56596868271604e+18,-1.937768358600e-01,9.812969584340e-01,9.926430878839e+00,6.156787276268e-02,-3.363132178783e-01,5.383672565222e-02
1.5659686827198387e+18,-1.404588553040e-01,9.497759784906e-01,9.965655155687e+00,2.751719057560e-01,2.058610320091e-02,2.479566261172e-02
1.5659686827210504e+18,-2.403223098943e-01,9.123842751250e-01,9.905138802235e+00,-1.607398688793e-01,1.746613532305e-01,-3.967878967524e-02
1.5659686827239432e+18,-1.485852877337e-01,9.568862700769e-01,9.965506685159e+00,-3.314786553383e-01,-5.669540166855e-02,3.635663539171e-03
1.5659686827337362e+18,-2.214224939009e-01,9.332188111550e-01,9.932073927968e+00,2.012454271317e-01,-1.153541058302e-01,4.240206256509e-02
1.5659686827377508e+18,-1.007581685345e-01,9.006125788718e-01,9.968654961791e+00,4.569949209690e-01,-4.644224420190e-02,4.189448058605e-02
1.5659686827397873e+18,-1.538249657449e-01,8.498162957086e-01,9.920624161413e+00,-4.622215032578e-02,-2.679879590869e-02,-5.065218359232e-02
1.5659686827514107e+18,-1.696604216427e-01,9.243327915937e-01,9.942926305232e+00,2.713006734848e-02,2.742691151798e-02,5.947043746710e-02
1.5659686827543933e+18,-2.117921489114e-01,1.010912737088e+00,9.800861052883e+00,4.306854605675e-01,7.815911620855e-02,7.110400497913e-02
1.5659686827560215e+18,-2.463202781121e-01,9.887272069311e-01,9.804328482697e+00,2.247665971518e-01,-1.559761166573e-01,-3.909258916974e-02
1.5659686827628987e+18,-2.944025901648e-01,1.021142005758e+00,9.883367411327e+00,-2.451331615448e-01,1.240181550384e-01,8.128295838833e-02
1.5659686827714616e+18,-2.514169746939e-01,1.022288414511e+00,9.835997129440e+00,-1.155183911324e-01,-2.142499834299e-01,-1.055582836270e-01
1.5659686827761152e+18,-2.407080263894e-01,1.015312783940e+00,9.949276635222e+00,-3.041031658649e-01,-3.106524348259e-01,-9.887880086899e-02
1.5659686827798316e+18,-3.078776423170e-01,1.009501974806e+00,9.973943785958e+00,-3.681630790234e-01,5.890548229218e-02,7.622016966343e-02
1.5659686827810476e+18,-2.417044667572e-01,1.028647074049e+00,9.974140187917e+00,2.917293012142e-01,1.265957057476e-01,7.636789232492e-02
1.5659686827839516e+18,-2.283331320827e-01,1.050930074522e+00,9.929035542908e+00,1.417187303305e-01,-2.516975104809e-01,-1.029079705477e-01
1.5659686827914747e+18,-2.779664204644e-01,1.011374077105e+00,1.002841844107e+01,-2.855536639690e-01,-1.254089176655e-01,-5.458275228739e-02
1.5659686827950162e+18,-2.390790518868e-01,1.034414774122e+00,1.000517988077e+01,-1.827353090048e-01,-2.138143330812e-01,-7.115846872330e-02
1.5659686827960788e+18,-3.081829129206e-01,9.912279708561e-01,1.008733669049e+01,-1.945458203554e-01,4.768349230289e-03,1.401207596064e-02
1.565968682799867e+18,-3.106156156759e-01,9.660827479424e-01,9.952401530669e+00,1.167094856501e-01,9.413114935160e-02,7.669373601675e-02
1.5659686828010806e+18,-3.029107843812e-01,9.857246243116e-01,9.933647481754e+00,2.716925740242e-02,-1.441991180182e-01,-2.394836582243e-02
1.5659686828040292e+18,-3.719061055678e-01,9.756283361343e-01,9.903375860846e+00,-6.635607779026e-02,-1.714357286692e-01,-6.598573923111e-02
1.565968682811993e+18,-3.360252286517e-01,9.605199985734e-01,9.934134979472e+00,1.020153611898e-01,6.164988502860e-02,2.057945355773e-02
1.565968682813166e+18,-3.708803656519e-01,9.605579929999e-01,9.785954378047e+00,-2.631868720055e-01,-2.036476731300e-01,-2.534091845155e-02
1.5659686828139917e+18,-3.773940351431e-01,9.231782724918e-01,9.737494532914e+00,2.694756537676e-02,3.697162866592e-02,-1.857173629105e-02
1.5659686828160512e+18,-3.846995230956e-01,8.817175852479e-01,9.717504788344e+00,1.381711512804e-01,7.331689447165e-02,2.559644542634e-02
1.5659686828221033e+18,-4.059777536541e-01,9.101908276573e-01,9.720502256329e+00,-8.999155461788e-02,-8.045316487551e-02,-1.857986301184e-02
1.565968682823971e+18,-3.287739923563e-01,8.837175534053e-01,9.691979548099e+00,2.682509422302e-01,1.664366014302e-02,-3.298644348979e-02
1.5659686828314755e+18,-3.354317849364e-01,7.914113363761e-01,9.711090160093e+00,5.477935075760e-02,-5.088009312749e-02,-2.005069702864e-02
1.565968682834101e+18,-2.512066901565e-01,6.995370867495e-01,9.705161860502e+00,2.267860323191e-01,6.653441488743e-02,-1.601416990161e-02
1.5659686828469468e+18,-2.649756511175e-01,6.595317321725e-01,9.766863640060e+00,3.275655210018e-02,-1.475967615843e-01,2.832431718707e-02
1.5659686828474074e+18,-2.138096894911e-01,6.258349137168e-01,9.812956140158e+00,5.116678774357e-02,-9.018234908581e-02,-5.862940102816e-02
1.5659686828541788e+18,-1.179908694664e-01,6.505171160908e-01,9.933655665169e+00,-2.579657435417e-01,-1.553012132645e-01,-4.686477035284e-02
1.5659686828563633e+18,-2.148897175971e-01,6.828658630683e-01,9.986398943491e+00,-1.442914754152e-01,-3.240762352943e-01,1.567142270505e-02
1.565968682859946e+18,-1.665342110047e-01,6.905253202498e-01,9.987455773077e+00,3.690351843834e-01,2.781990915537e-02,3.873427584767e-02
1.5659686828612022e+18,-2.140204124257e-01,6.634695622133e-01,9.991332373638e+00,-2.677178382874e-02,8.657068014145e-02,-4.910082370043e-02
1.5659686828640614e+18,-1.688361617865e-01,6.846729364450e-01,9.964823954542e+00,-3.439915180206e-01,-1.698076426983e-01,-3.935340791941e-02
1.565968682871531e+18,-1.643151538323e-01,6.867013273561e-01,9.986391929135e+00,1.564738154411e-01,-2.113040089607e-01,4.189265519381e-02
1.5659686828726395e+18,-1.169905200567e-01,6.864550211798e-01,9.964421798151e+00,-4.136121869087e-01,3.203456476331e-02,-4.434128105640e-02
1.56596868287441e+18,-1.570791883737e-01,6.677416701409e-01,9.931385352054e+00,-1.224870234728e-01,-1.130495816469e-01,1.400423794985e-02
1.5659686828787003e+18,-1.022795073841e-01,7.163833770575e-01,9.888409563987e+00,4.175515770912e-01,-1.229745298624e-01,4.121558368206e-02
1.5659686828810143e+18,-1.289929959176e-01,7.784477841905e-01,9.922138093176e+00,-4.625213742256e-01,1.152299121022e-01,-4.502936452627e-02
1.5659686828839596e+18,-1.294038289206e-01,7.601332284974e-01,9.887543291063e+00,1.146445721388e-01,-1.274157464504e-01,3.122266568244e-02
1.5659686828914604e+18,-1.494255947551e-01,7.788841355655e-01,9.839420135002e+00,2.854056358337e-01,-2.046343386173e-01,1.221400126815e-02
1.5659686828953083e+18,-8.800395102557e-02,8.081986622567e-01,9.955063478642e+00,3.967788219452e-01,-7.754168659449e-02,4.232276231050e-02
1.5659686828960622e+18,-1.353980798952e-01,7.903065753597e-01,9.942224869666e+00,1.375483125448e-01,-1.669885516167e-01,-2.033324167132e-02
1.5659686828998264e+18,-1.143557983785e-01,7.839083139390e-01,1.002544669239e+01,-4.443778991699e-01,5.256563425064e-02,-2.395923621953e-02
1.5659686829010388e+18,-8.456917267149e-02,7.886149465865e-01,1.005752567894e+01,-6.629085540771e-02,1.573888212442e-01,4.609175026417e-02
1.5659686829039465e+18,-6.931324137693e-02,7.802165708759e-01,9.999318217556e+00,3.767341375351e-01,-2.326726317406e-01,1.683421432972e-02
1.5659686829115295e+18,-2.605475103095e-02,8.259546998805e-01,1.008746762513e+01,-2.811672091484e-01,-2.803952097893e-01,-5.550042912364e-02
1.5659686829125752e+18,-1.376153560789e-02,9.157160940632e-01,1.008748048478e+01,1.820950061083e-01,2.111643552780e-01,5.200409889221e-02
1.5659686829140285e+18,-6.473669397376e-02,8.860735001124e-01,1.005472110573e+01,3.107742071152e-01,-2.376591861248e-01,-2.341168373823e-02
1.5659686829160159e+18,-5.202356707180e-02,9.670239137262e-01,1.013805749626e+01,-4.128684997559e-01,-5.526103079319e-02,-4.806553944945e-02
1.565968682919728e+18,-5.261989690216e-02,9.916789354721e-01,1.020109901775e+01,-4.370460212231e-01,2.827199101448e-01,4.851858690381e-02
1.56596868292122e+18,-5.458517687885e-02,1.081699057086e+00,1.010928577841e+01,1.717715561390e-01,-5.445794761181e-02,3.256318345666e-02
1.5659686829239557e+18,-6.623533663359e-03,1.106455786989e+00,1.018602399838e+01,1.685371994972e-02,-3.360067009926e-01,-6.245608627796e-02
1.565968682931463e+18,-1.024273568495e-01,1.098785150678e+00,1.018133373256e+01,-5.074229836464e-01,8.258834481239e-03,-1.319208368659e-02
1.5659686829327698e+18,-9.610001531381e-02,1.125674463900e+00,1.009029791764e+01,1.576190292835e-01,-2.189503163099e-01,-2.602681145072e-02
1.5659686829339907e+18,-6.636396968711e-02,1.152073868219e+00,1.024782514798e+01,-1.277071088552e-01,-2.092259526253e-01,-7.809240370989e-02
1.565968682936035e+18,-1.484787572071e-01,1.113096701276e+00,1.018849305157e+01,-3.867155015469e-01,2.427007555962e-01,5.442354083061e-02
1.5659686829398272e+18,-1.104572231562e-01,1.118832617550e+00,1.018819961770e+01,-5.627397447824e-02,1.029250547290e-01,8.089634776115e-02
1.565968682941051e+18,-1.260506837838e-01,1.151389676277e+00,1.011343710790e+01,7.539179921150e-02,-3.337107598782e-01,-5.222965776920e-02
1.5659686829439805e+18,-1.702958418927e-01,1.100022526856e+00,1.022065036510e+01,-1.171889454126e-01,-1.218575090170e-01,-4.728016257286e-02
1.5659686829525105e+18,-1.884976198987e-01,1.161201298521e+00,1.012549478528e+01,-4.703415185213e-02,-2.210313379765e-01,-6.935258954763e-02
1.5659686829540242e+18,-1.920705938458e-01,1.099550957570e+00,1.015955415824e+01,-3.314418345690e-02,4.815454781055e-02,-1.606969349086e-02
1.5659686829563487e+18,-2.066793046984e-01,1.087389453115e+00,1.009836793382e+01,-2.447275966406e-01,1.287250518799e-01,6.473438441753e-02
1.5659686829616876e+18,-1.999034005982e-01,1.125071594644e+00,1.006578040649e+01,1.231970191002e-01,-1.971003860235e-01,-4.727280512452e-02
1.5659686829640118e+18,-1.420610875757e-01,1.107251989422e+00,1.013603736183e+01,3.946288675070e-02,7.342907786369e-02,-8.868128061295e-04
1.5659686829714573e+18,-1.717308256216e-01,1.052504724302e+00,1.008183977377e+01,-3.697161674500e-01,-4.913889616728e-02,3.344342857599e-02
1.5659686829724544e+18,-1.716572844864e-01,1.053201848961e+00,1.008266629868e+01,1.898055374622e-01,1.193717867136e-01,-1.709538325667e-02
1.5659686829739878e+18,-2.309174106798e-01,1.030667208478e+00,1.006097323474e+01,-8.667835593224e-02,-4.386093467474e-02,2.945250831544e-02
1.5659686829761062e+18,-2.057792021216e-01,1.067086619857e+00,1.008559128499e+01,-4.644298553467e-01,-1.134790107608e-01,5.149457603693e-02
1.5659686829798444e+18,-2.725368342536e-01,1.054356660328e+00,1.008296207068e+01,1.235294342041e-02,6.746543943882e-02,1.962162926793e-02
1.5659686829810557e+18,-2.077735441813e-01,1.050308865649e+00,1.005451885848e+01,3.137107193470e-01,-2.127945423126e-03,-3.076560422778e-02
1.5659686829839926e+18,-2.315428573927e-01,1.031910356887e+00,1.009698493670e+01,-2.337710857391e-01,-1.939301490784e-01,-3.558497130871e-02
1.5659686829914975e+18,-2.429288736839e-01,1.094929447051e+00,1.009598772914e+01,-4.069961905479e-01,-7.273622602224e-02,2.367247641087e-02
1.5659686829938916e+18,-2.233211192323e-01,1.080127329955e+00,1.011625687887e+01,1.990364491940e-01,1.891006827354e-01,3.284896910191e-02
1.5659686829963456e+18,-2.528804542427e-01,1.075099059874e+00,1.004259094668e+01,-1.022772043943e-01,6.912956386805e-02,1.013745218515e-01
1.565968682999787e+18,-2.078408746890e-01,1.101884984416e+00,1.012254992496e+01,4.174166321754e-01,1.911499202251e-01,1.865324378014e-02
1.5659686830010675e+18,-1.861997973575e-01,1.058965165063e+00,1.001063003512e+01,-9.103417396545e-03,-1.151360496879e-01,-1.082852482796e-01
1.5659686830040028e+18,-2.047076131622e-01,1.065445479831e+00,1.009611866378e+01,-3.059992790222e-01,-1.441030055285e-01,-4.999451339245e-04
1.5659686830135058e+18,-1.604690218785e-01,1.012440697562e+00,9.968260988815e+00,-3.331521749496e-01,-6.496204435825e-02,-5.409107357264e-02
1.5659686830160072e+18,-2.032207889611e-01,9.378620954029e-01,9.857689024317e+00,4.464205503464e-01,8.097709715366e-02,7.343848794699e-02
1.5659686830198879e+18,-1.831885198596e-01,9.390952337411e-01,9.929360541387e+00,4.159857332706e-02,-2.985995262861e-03,-7.717172056437e-02
1.5659686830211238e+18,-2.077832985196e-01,9.243639908631e-01,9.914776526911e+00,-9.552685171366e-02,-2.757064998150e-03,-4.671142995358e-02
1.565968683023957e+18,-1.495337053383e-01,9.307519499490e-01,9.949719708688e+00,2.815273106098e-01,-1.988893002272e-02,5.810841917992e-02
1.5659686830314522e+18,-1.882200779198e-01,8.864146462226e-01,9.846305894141e+00,9.972283989191e-02,-1.236488819122e-01,1.572126150131e-02
1.5659686830331953e+18,-1.727096205009e-01,8.280208660194e-01,9.869205427251e+00,3.419348597527e-02,1.889440715313e-01,3.530660644174e-02
1.5659686830340867e+18,-1.919989524321e-01,7.927388762508e-01,9.882712738132e+00,3.291980922222e-01,-6.932420283556e-02,3.922473639250e-02
